Subject.ID,Subject.Age,Gender,Group,TrialNumber,Intended.or.Unintended.Outcome,Reaction.Time.on.Outcome.Response,Response...Short.or.Long,Left.Image.Code,Right.Image.Code,Chosen.Image.Code,Objective.Duration.of.Stimulus,Stimulus.Delay,Experiment
3_M,23,M,250+1000,1,1,3360,long,4,3,3,550,250,Within-Subjects
3_M,23,M,250+1000,2,1,3900,long,2,5,5,450,250,Within-Subjects
3_M,23,M,250+1000,3,0,458,long,1,3,3,750,1000,Within-Subjects
3_M,23,M,250+1000,4,1,450,long,3,4,4,550,250,Within-Subjects
3_M,23,M,250+1000,5,1,438,long,6,4,4,750,250,Within-Subjects
3_M,23,M,250+1000,6,0,3440,long,2,4,4,850,250,Within-Subjects
3_M,23,M,250+1000,7,1,2330,long,3,2,2,750,1000,Within-Subjects
3_M,23,M,250+1000,8,1,516,short,6,1,1,350,250,Within-Subjects
3_M,23,M,250+1000,9,1,402,long,4,1,1,750,1000,Within-Subjects
3_M,23,M,250+1000,10,1,1320,short,5,1,1,250,250,Within-Subjects
3_M,23,M,250+1000,11,1,3440,long,1,2,2,450,250,Within-Subjects
3_M,23,M,250+1000,12,0,2100,long,2,4,4,550,250,Within-Subjects
3_M,23,M,250+1000,13,0,1370,long,1,3,3,750,250,Within-Subjects
3_M,23,M,250+1000,14,1,411,short,6,2,2,350,1000,Within-Subjects
3_M,23,M,250+1000,15,1,515,short,6,4,4,350,250,Within-Subjects
3_M,23,M,250+1000,16,1,1290,long,6,3,3,650,1000,Within-Subjects
3_M,23,M,250+1000,17,0,1480,short,5,2,2,450,250,Within-Subjects
3_M,23,M,250+1000,18,1,499,short,1,6,6,350,1000,Within-Subjects
3_M,23,M,250+1000,19,0,547,short,4,2,2,550,1000,Within-Subjects
3_M,23,M,250+1000,20,0,1180,long,4,5,5,750,250,Within-Subjects
3_M,23,M,250+1000,21,1,1400,short,2,3,3,550,1000,Within-Subjects
3_M,23,M,250+1000,22,0,2480,long,6,4,4,550,1000,Within-Subjects
3_M,23,M,250+1000,23,1,480,long,6,4,4,750,250,Within-Subjects
3_M,23,M,250+1000,24,1,464,long,6,5,5,550,1000,Within-Subjects
3_M,23,M,250+1000,25,0,546,short,6,5,5,350,1000,Within-Subjects
3_M,23,M,250+1000,26,1,496,short,5,2,2,450,250,Within-Subjects
3_M,23,M,250+1000,27,1,2850,short,6,3,3,550,1000,Within-Subjects
3_M,23,M,250+1000,28,0,598,long,4,1,1,650,1000,Within-Subjects
3_M,23,M,250+1000,29,0,344,long,3,1,1,850,1000,Within-Subjects
3_M,23,M,250+1000,30,0,542,short,1,5,5,450,1000,Within-Subjects
3_M,23,M,250+1000,31,1,1130,long,6,2,2,750,250,Within-Subjects
3_M,23,M,250+1000,32,1,1040,long,2,1,1,550,250,Within-Subjects
3_M,23,M,250+1000,33,1,593,short,5,6,6,350,250,Within-Subjects
3_M,23,M,250+1000,34,0,365,long,1,2,2,850,250,Within-Subjects
3_M,23,M,250+1000,35,1,1280,short,3,6,6,450,250,Within-Subjects
3_M,23,M,250+1000,36,0,365,long,3,6,6,750,250,Within-Subjects
3_M,23,M,250+1000,37,1,389,long,6,2,2,850,250,Within-Subjects
3_M,23,M,250+1000,38,0,2190,long,1,6,6,650,1000,Within-Subjects
3_M,23,M,250+1000,39,1,575,short,6,3,3,250,1000,Within-Subjects
3_M,23,M,250+1000,40,1,451,short,2,6,6,350,1000,Within-Subjects
3_M,23,M,250+1000,41,0,1220,short,2,4,4,350,1000,Within-Subjects
3_M,23,M,250+1000,42,0,535,short,1,4,4,250,1000,Within-Subjects
3_M,23,M,250+1000,43,1,343,long,5,6,6,850,1000,Within-Subjects
3_M,23,M,250+1000,44,0,533,short,3,2,2,450,1000,Within-Subjects
3_M,23,M,250+1000,45,1,501,short,4,3,3,650,250,Within-Subjects
3_M,23,M,250+1000,46,0,546,short,2,1,1,250,250,Within-Subjects
3_M,23,M,250+1000,47,1,498,short,4,2,2,250,250,Within-Subjects
3_M,23,M,250+1000,48,0,787,long,6,5,5,750,1000,Within-Subjects
3_M,23,M,250+1000,49,0,511,short,5,4,4,350,250,Within-Subjects
3_M,23,M,250+1000,50,0,464,short,6,5,5,250,250,Within-Subjects
3_M,23,M,250+1000,51,0,614,long,1,2,2,750,1000,Within-Subjects
3_M,23,M,250+1000,52,0,1170,long,5,3,3,850,1000,Within-Subjects
3_M,23,M,250+1000,53,0,1020,short,5,6,6,450,1000,Within-Subjects
3_M,23,M,250+1000,54,1,464,long,5,6,6,850,250,Within-Subjects
3_M,23,M,250+1000,55,0,942,long,2,4,4,550,1000,Within-Subjects
3_M,23,M,250+1000,56,1,444,short,3,1,1,550,250,Within-Subjects
3_M,23,M,250+1000,57,1,404,short,3,1,1,350,250,Within-Subjects
3_M,23,M,250+1000,58,1,3550,long,6,1,1,450,1000,Within-Subjects
3_M,23,M,250+1000,59,1,405,long,2,3,3,850,250,Within-Subjects
3_M,23,M,250+1000,60,1,360,long,6,2,2,850,1000,Within-Subjects
3_M,23,M,250+1000,61,1,1130,long,4,1,1,650,250,Within-Subjects
3_M,23,M,250+1000,62,0,380,long,5,3,3,750,1000,Within-Subjects
3_M,23,M,250+1000,63,1,399,long,4,1,1,750,250,Within-Subjects
3_M,23,M,250+1000,64,1,1080,long,4,6,6,550,250,Within-Subjects
3_M,23,M,250+1000,65,0,493,short,1,4,4,250,250,Within-Subjects
3_M,23,M,250+1000,66,1,299,long,3,6,6,850,1000,Within-Subjects
3_M,23,M,250+1000,67,1,987,long,2,1,1,650,1000,Within-Subjects
3_M,23,M,250+1000,68,1,1920,long,1,3,3,550,250,Within-Subjects
3_M,23,M,250+1000,69,1,2080,long,5,4,4,450,250,Within-Subjects
3_M,23,M,250+1000,70,1,387,short,1,5,5,350,250,Within-Subjects
3_M,23,M,250+1000,71,1,1550,long,2,6,6,650,1000,Within-Subjects
3_M,23,M,250+1000,72,1,495,long,5,1,1,650,1000,Within-Subjects
3_M,23,M,250+1000,73,0,1060,long,1,6,6,650,250,Within-Subjects
3_M,23,M,250+1000,74,0,440,short,4,3,3,350,250,Within-Subjects
3_M,23,M,250+1000,75,0,362,short,1,4,4,250,250,Within-Subjects
3_M,23,M,250+1000,76,0,280,long,5,4,4,850,250,Within-Subjects
3_M,23,M,250+1000,77,0,588,short,3,5,5,350,1000,Within-Subjects
3_M,23,M,250+1000,78,1,3750,long,6,1,1,550,1000,Within-Subjects
3_M,23,M,250+1000,79,0,460,short,3,1,1,350,250,Within-Subjects
3_M,23,M,250+1000,80,0,586,short,6,2,2,350,1000,Within-Subjects
3_M,23,M,250+1000,81,0,862,long,3,5,5,550,250,Within-Subjects
3_M,23,M,250+1000,82,1,2000,long,6,3,3,650,250,Within-Subjects
3_M,23,M,250+1000,83,0,508,short,6,5,5,250,1000,Within-Subjects
3_M,23,M,250+1000,84,0,1530,long,2,6,6,650,250,Within-Subjects
3_M,23,M,250+1000,85,1,2000,short,3,2,2,250,1000,Within-Subjects
3_M,23,M,250+1000,86,0,280,long,4,5,5,850,1000,Within-Subjects
3_M,23,M,250+1000,87,0,419,short,1,3,3,350,250,Within-Subjects
3_M,23,M,250+1000,88,0,305,long,4,3,3,750,1000,Within-Subjects
3_M,23,M,250+1000,89,0,589,long,6,4,4,550,1000,Within-Subjects
3_M,23,M,250+1000,90,1,423,long,1,2,2,650,1000,Within-Subjects
3_M,23,M,250+1000,91,1,417,short,5,4,4,350,1000,Within-Subjects
3_M,23,M,250+1000,92,0,2660,short,6,3,3,450,1000,Within-Subjects
3_M,23,M,250+1000,93,1,597,short,2,3,3,350,250,Within-Subjects
3_M,23,M,250+1000,94,0,295,long,2,6,6,850,1000,Within-Subjects
3_M,23,M,250+1000,95,0,425,long,5,6,6,750,250,Within-Subjects
3_M,23,M,250+1000,96,0,891,long,1,4,4,650,250,Within-Subjects
3_M,23,M,250+1000,97,0,1330,short,2,1,1,450,1000,Within-Subjects
3_M,23,M,250+1000,98,0,950,long,2,5,5,650,250,Within-Subjects
3_M,23,M,250+1000,99,1,4690,long,4,3,3,650,250,Within-Subjects
3_M,23,M,250+1000,100,0,3220,long,4,1,1,550,1000,Within-Subjects
3_M,23,M,250+1000,101,0,394,long,1,4,4,750,250,Within-Subjects
3_M,23,M,250+1000,102,0,842,short,1,4,4,650,250,Within-Subjects
3_M,23,M,250+1000,103,1,388,long,1,6,6,750,250,Within-Subjects
3_M,23,M,250+1000,104,1,2580,long,3,1,1,450,1000,Within-Subjects
3_M,23,M,250+1000,105,1,662,short,1,2,2,450,250,Within-Subjects
3_M,23,M,250+1000,106,0,327,long,2,3,3,650,250,Within-Subjects
3_M,23,M,250+1000,107,0,437,short,5,4,4,250,1000,Within-Subjects
3_M,23,M,250+1000,108,0,622,short,2,6,6,450,250,Within-Subjects
3_M,23,M,250+1000,109,1,593,long,3,6,6,750,250,Within-Subjects
3_M,23,M,250+1000,110,1,512,long,2,6,6,850,1000,Within-Subjects
3_M,23,M,250+1000,111,1,463,short,1,3,3,550,250,Within-Subjects
3_M,23,M,250+1000,112,0,3860,short,6,3,3,650,1000,Within-Subjects
3_M,23,M,250+1000,113,1,565,short,1,4,4,250,250,Within-Subjects
3_M,23,M,250+1000,114,1,637,long,2,4,4,650,250,Within-Subjects
3_M,23,M,250+1000,115,1,519,short,3,5,5,450,1000,Within-Subjects
3_M,23,M,250+1000,116,1,463,short,2,6,6,450,250,Within-Subjects
3_M,23,M,250+1000,117,0,453,short,3,6,6,250,1000,Within-Subjects
3_M,23,M,250+1000,118,1,487,long,6,3,3,850,1000,Within-Subjects
3_M,23,M,250+1000,119,0,395,short,4,1,1,450,250,Within-Subjects
3_M,23,M,250+1000,120,1,363,long,1,5,5,850,250,Within-Subjects
3_M,23,M,250+1000,121,0,600,long,2,5,5,750,250,Within-Subjects
3_M,23,M,250+1000,122,1,484,short,4,2,2,250,1000,Within-Subjects
3_M,23,M,250+1000,123,1,394,long,1,6,6,650,250,Within-Subjects
3_M,23,M,250+1000,124,1,792,short,1,3,3,350,250,Within-Subjects
3_M,23,M,250+1000,125,1,565,long,3,6,6,750,1000,Within-Subjects
3_M,23,M,250+1000,126,1,1720,long,6,2,2,450,1000,Within-Subjects
3_M,23,M,250+1000,127,0,566,long,1,6,6,650,1000,Within-Subjects
3_M,23,M,250+1000,128,0,602,long,3,5,5,650,250,Within-Subjects
3_M,23,M,250+1000,129,1,1490,long,6,4,4,750,1000,Within-Subjects
3_M,23,M,250+1000,130,1,980,short,4,3,3,850,250,Within-Subjects
3_M,23,M,250+1000,131,0,742,short,6,5,5,250,250,Within-Subjects
3_M,23,M,250+1000,132,0,386,long,2,1,1,550,250,Within-Subjects
3_M,23,M,250+1000,133,1,1660,long,3,6,6,750,1000,Within-Subjects
3_M,23,M,250+1000,134,0,522,long,4,5,5,650,1000,Within-Subjects
3_M,23,M,250+1000,135,1,355,long,6,5,5,750,1000,Within-Subjects
3_M,23,M,250+1000,136,1,474,short,4,6,6,450,250,Within-Subjects
3_M,23,M,250+1000,137,0,280,long,2,4,4,850,1000,Within-Subjects
3_M,23,M,250+1000,138,0,365,long,5,4,4,850,250,Within-Subjects
3_M,23,M,250+1000,139,1,285,long,3,5,5,850,250,Within-Subjects
3_M,23,M,250+1000,140,1,385,long,1,4,4,750,250,Within-Subjects
3_M,23,M,250+1000,141,1,537,short,5,6,6,350,1000,Within-Subjects
3_M,23,M,250+1000,142,1,337,long,4,1,1,750,1000,Within-Subjects
3_M,23,M,250+1000,143,0,489,long,5,2,2,550,1000,Within-Subjects
3_M,23,M,250+1000,144,1,505,short,2,4,4,250,1000,Within-Subjects
3_M,23,M,250+1000,145,0,535,short,4,2,2,250,1000,Within-Subjects
3_M,23,M,250+1000,146,0,325,long,5,2,2,450,1000,Within-Subjects
3_M,23,M,250+1000,147,1,530,short,6,1,1,250,250,Within-Subjects
3_M,23,M,250+1000,148,1,471,short,3,1,1,250,250,Within-Subjects
3_M,23,M,250+1000,149,0,316,long,1,5,5,450,1000,Within-Subjects
3_M,23,M,250+1000,150,1,1270,short,4,6,6,350,250,Within-Subjects
3_M,23,M,250+1000,151,1,1600,long,3,4,4,450,250,Within-Subjects
3_M,23,M,250+1000,152,1,672,short,6,2,2,250,1000,Within-Subjects
3_M,23,M,250+1000,153,1,1320,long,3,5,5,550,250,Within-Subjects
3_M,23,M,250+1000,154,1,2350,long,2,6,6,450,1000,Within-Subjects
3_M,23,M,250+1000,155,0,1230,long,2,1,1,850,250,Within-Subjects
3_M,23,M,250+1000,156,0,660,long,3,2,2,450,250,Within-Subjects
3_M,23,M,250+1000,157,1,582,long,5,3,3,550,250,Within-Subjects
3_M,23,M,250+1000,158,1,502,short,5,1,1,250,1000,Within-Subjects
3_M,23,M,250+1000,159,0,526,short,5,2,2,350,1000,Within-Subjects
3_M,23,M,250+1000,160,0,1070,long,4,5,5,850,250,Within-Subjects
3_M,23,M,250+1000,161,1,782,long,6,3,3,450,250,Within-Subjects
3_M,23,M,250+1000,162,1,1830,long,1,4,4,350,250,Within-Subjects
3_M,23,M,250+1000,163,0,596,long,5,4,4,650,1000,Within-Subjects
3_M,23,M,250+1000,164,0,1860,long,5,3,3,450,1000,Within-Subjects
3_M,23,M,250+1000,165,0,433,long,5,6,6,550,250,Within-Subjects
3_M,23,M,250+1000,166,1,426,long,4,3,3,650,250,Within-Subjects
3_M,23,M,250+1000,167,0,535,short,2,6,6,250,250,Within-Subjects
3_M,23,M,250+1000,168,1,331,long,2,5,5,850,250,Within-Subjects
3_M,23,M,250+1000,169,0,410,short,1,6,6,250,1000,Within-Subjects
3_M,23,M,250+1000,170,1,270,long,4,6,6,650,250,Within-Subjects
3_M,23,M,250+1000,171,0,422,short,6,5,5,250,1000,Within-Subjects
3_M,23,M,250+1000,172,0,419,short,6,1,1,250,250,Within-Subjects
3_M,23,M,250+1000,173,0,1370,short,4,2,2,350,1000,Within-Subjects
3_M,23,M,250+1000,174,0,333,long,3,5,5,850,1000,Within-Subjects
3_M,23,M,250+1000,175,0,624,short,3,2,2,350,1000,Within-Subjects
3_M,23,M,250+1000,176,0,318,long,3,1,1,750,1000,Within-Subjects
3_M,23,M,250+1000,177,1,294,long,6,3,3,850,1000,Within-Subjects
3_M,23,M,250+1000,178,1,290,long,4,5,5,850,1000,Within-Subjects
3_M,23,M,250+1000,179,0,440,long,5,6,6,750,250,Within-Subjects
3_M,23,M,250+1000,180,1,270,long,4,1,1,650,1000,Within-Subjects
3_M,23,M,250+1000,181,0,701,short,4,1,1,350,1000,Within-Subjects
3_M,23,M,250+1000,182,0,787,long,2,5,5,550,1000,Within-Subjects
3_M,23,M,250+1000,183,0,2480,long,2,1,1,450,250,Within-Subjects
3_M,23,M,250+1000,184,1,441,short,5,4,4,250,250,Within-Subjects
3_M,23,M,250+1000,185,1,327,long,4,3,3,750,250,Within-Subjects
3_M,23,M,250+1000,186,1,683,short,4,6,6,450,250,Within-Subjects
3_M,23,M,250+1000,187,1,749,short,1,3,3,450,250,Within-Subjects
3_M,23,M,250+1000,188,0,503,long,3,4,4,450,1000,Within-Subjects
3_M,23,M,250+1000,189,1,501,long,4,1,1,550,250,Within-Subjects
3_M,23,M,250+1000,190,1,471,long,3,4,4,550,250,Within-Subjects
3_M,23,M,250+1000,191,0,2470,short,1,2,2,350,250,Within-Subjects
3_M,23,M,250+1000,192,1,309,long,3,5,5,750,1000,Within-Subjects
3_M,23,M,250+1000,193,1,1160,long,6,2,2,650,1000,Within-Subjects
3_M,23,M,250+1000,194,0,419,long,5,6,6,650,250,Within-Subjects
3_M,23,M,250+1000,195,0,531,long,2,1,1,550,250,Within-Subjects
3_M,23,M,250+1000,196,0,779,short,6,1,1,250,250,Within-Subjects
3_M,23,M,250+1000,197,0,325,long,1,5,5,850,1000,Within-Subjects
3_M,23,M,250+1000,198,1,2020,short,4,3,3,550,1000,Within-Subjects
3_M,23,M,250+1000,199,0,656,long,3,1,1,550,250,Within-Subjects
3_M,23,M,250+1000,200,1,406,long,3,5,5,650,1000,Within-Subjects
3_M,23,M,250+1000,201,1,1360,long,3,2,2,550,1000,Within-Subjects
3_M,23,M,250+1000,202,0,466,short,5,3,3,350,250,Within-Subjects
3_M,23,M,250+1000,203,0,478,short,6,3,3,250,250,Within-Subjects
3_M,23,M,250+1000,204,0,1400,short,3,2,2,450,1000,Within-Subjects
3_M,23,M,250+1000,205,0,324,long,1,5,5,650,1000,Within-Subjects
3_M,23,M,250+1000,206,0,996,long,2,1,1,850,1000,Within-Subjects
3_M,23,M,250+1000,207,1,918,short,1,4,4,450,1000,Within-Subjects
3_M,23,M,250+1000,208,0,1660,long,2,3,3,750,1000,Within-Subjects
3_M,23,M,250+1000,209,1,1170,long,4,6,6,750,1000,Within-Subjects
3_M,23,M,250+1000,210,0,484,short,4,5,5,350,1000,Within-Subjects
3_M,23,M,250+1000,211,1,564,short,2,1,1,250,1000,Within-Subjects
3_M,23,M,250+1000,212,1,451,long,4,2,2,550,1000,Within-Subjects
3_M,23,M,250+1000,213,1,305,long,6,4,4,850,250,Within-Subjects
3_M,23,M,250+1000,214,0,345,long,2,5,5,750,250,Within-Subjects
3_M,23,M,250+1000,215,0,385,long,1,5,5,850,1000,Within-Subjects
3_M,23,M,250+1000,216,1,539,long,5,3,3,850,1000,Within-Subjects
3_M,23,M,250+1000,217,0,417,short,1,2,2,350,250,Within-Subjects
3_M,23,M,250+1000,218,0,281,long,6,3,3,650,1000,Within-Subjects
3_M,23,M,250+1000,219,1,305,long,5,6,6,750,250,Within-Subjects
3_M,23,M,250+1000,220,1,477,short,4,2,2,250,250,Within-Subjects
3_M,23,M,250+1000,221,1,319,long,3,6,6,550,250,Within-Subjects
3_M,23,M,250+1000,222,0,423,long,2,5,5,550,250,Within-Subjects
3_M,23,M,250+1000,223,0,271,long,2,3,3,850,250,Within-Subjects
3_M,23,M,250+1000,224,0,501,short,6,5,5,250,250,Within-Subjects
3_M,23,M,250+1000,225,0,261,long,5,4,4,850,1000,Within-Subjects
3_M,23,M,250+1000,226,0,1840,short,6,2,2,250,250,Within-Subjects
3_M,23,M,250+1000,227,1,1530,long,3,6,6,450,250,Within-Subjects
3_M,23,M,250+1000,228,0,263,long,3,2,2,850,1000,Within-Subjects
3_M,23,M,250+1000,229,1,423,short,4,5,5,350,1000,Within-Subjects
3_M,23,M,250+1000,230,0,326,long,2,4,4,850,250,Within-Subjects
3_M,23,M,250+1000,231,0,502,short,1,2,2,250,250,Within-Subjects
3_M,23,M,250+1000,232,1,355,long,5,1,1,550,1000,Within-Subjects
3_M,23,M,250+1000,233,1,398,long,4,6,6,650,250,Within-Subjects
3_M,23,M,250+1000,234,1,258,long,6,5,5,850,1000,Within-Subjects
3_M,23,M,250+1000,235,1,3270,long,1,6,6,450,1000,Within-Subjects
3_M,23,M,250+1000,236,0,2630,long,4,2,2,350,250,Within-Subjects
3_M,23,M,250+1000,237,0,368,long,2,3,3,550,1000,Within-Subjects
3_M,23,M,250+1000,238,0,668,short,3,5,5,350,1000,Within-Subjects
3_M,23,M,250+1000,239,1,410,long,4,5,5,550,1000,Within-Subjects
3_M,23,M,250+1000,240,0,1010,long,1,6,6,750,250,Within-Subjects
3_M,23,M,250+1000,241,1,565,short,5,1,1,350,1000,Within-Subjects
3_M,23,M,250+1000,242,1,2410,long,6,4,4,550,1000,Within-Subjects
3_M,23,M,250+1000,243,0,4340,short,5,2,2,550,250,Within-Subjects
3_M,23,M,250+1000,244,1,675,short,3,6,6,350,1000,Within-Subjects
3_M,23,M,250+1000,245,0,291,long,5,1,1,550,1000,Within-Subjects
3_M,23,M,250+1000,246,0,539,short,2,6,6,350,250,Within-Subjects
3_M,23,M,250+1000,247,0,2280,short,3,1,1,350,1000,Within-Subjects
3_M,23,M,250+1000,248,0,378,long,4,2,2,650,250,Within-Subjects
3_M,23,M,250+1000,249,1,425,long,4,5,5,750,250,Within-Subjects
3_M,23,M,250+1000,250,0,793,long,2,6,6,450,250,Within-Subjects
3_M,23,M,250+1000,251,0,1350,short,1,2,2,250,1000,Within-Subjects
3_M,23,M,250+1000,252,1,581,long,5,3,3,850,1000,Within-Subjects
3_M,23,M,250+1000,253,1,892,long,4,3,3,850,250,Within-Subjects
3_M,23,M,250+1000,254,0,304,long,6,4,4,850,1000,Within-Subjects
3_M,23,M,250+1000,255,0,230,long,3,6,6,850,250,Within-Subjects
3_M,23,M,250+1000,256,1,335,long,3,2,2,650,1000,Within-Subjects
3_M,23,M,250+1000,257,1,261,long,6,4,4,650,250,Within-Subjects
3_M,23,M,250+1000,258,0,287,long,1,3,3,750,250,Within-Subjects
3_M,23,M,250+1000,259,0,302,long,3,2,2,550,1000,Within-Subjects
3_M,23,M,250+1000,260,1,241,long,2,1,1,750,250,Within-Subjects
3_M,23,M,250+1000,261,1,499,short,2,4,4,250,250,Within-Subjects
3_M,23,M,250+1000,262,1,351,long,6,5,5,850,1000,Within-Subjects
3_M,23,M,250+1000,263,1,943,long,4,6,6,550,1000,Within-Subjects
3_M,23,M,250+1000,264,1,617,short,3,2,2,450,250,Within-Subjects
3_M,23,M,250+1000,265,1,369,long,5,1,1,650,250,Within-Subjects
3_M,23,M,250+1000,266,0,1950,long,1,5,5,450,250,Within-Subjects
3_M,23,M,250+1000,267,1,1350,short,1,5,5,550,1000,Within-Subjects
3_M,23,M,250+1000,268,0,1190,long,5,4,4,650,1000,Within-Subjects
3_M,23,M,250+1000,269,0,1960,short,2,5,5,650,250,Within-Subjects
3_M,23,M,250+1000,270,1,1420,short,5,2,2,450,1000,Within-Subjects
3_M,23,M,250+1000,271,0,275,long,6,1,1,650,1000,Within-Subjects
3_M,23,M,250+1000,272,0,2030,short,2,4,4,550,1000,Within-Subjects
3_M,23,M,250+1000,273,0,986,short,1,3,3,550,1000,Within-Subjects
3_M,23,M,250+1000,274,0,420,short,4,5,5,450,250,Within-Subjects
3_M,23,M,250+1000,275,0,1890,long,5,2,2,750,1000,Within-Subjects
3_M,23,M,250+1000,276,1,388,short,4,3,3,350,1000,Within-Subjects
3_M,23,M,250+1000,277,0,360,short,3,4,4,450,250,Within-Subjects
3_M,23,M,250+1000,278,0,380,short,5,1,1,350,250,Within-Subjects
3_M,23,M,250+1000,279,1,416,long,5,2,2,650,1000,Within-Subjects
3_M,23,M,250+1000,280,0,534,short,5,3,3,250,1000,Within-Subjects
3_M,23,M,250+1000,281,0,1520,short,1,5,5,250,1000,Within-Subjects
3_M,23,M,250+1000,282,0,741,long,6,1,1,850,250,Within-Subjects
3_M,23,M,250+1000,283,1,1130,long,1,4,4,650,250,Within-Subjects
3_M,23,M,250+1000,284,1,467,short,2,3,3,350,250,Within-Subjects
3_M,23,M,250+1000,285,0,1270,short,1,6,6,650,250,Within-Subjects
3_M,23,M,250+1000,286,0,473,long,2,5,5,750,1000,Within-Subjects
3_M,23,M,250+1000,287,0,743,short,2,3,3,250,1000,Within-Subjects
3_M,23,M,250+1000,288,1,515,long,5,4,4,750,250,Within-Subjects
3_M,23,M,250+1000,289,0,321,long,4,5,5,650,250,Within-Subjects
3_M,23,M,250+1000,290,1,2060,long,5,3,3,450,250,Within-Subjects
3_M,23,M,250+1000,291,0,947,long,4,6,6,750,1000,Within-Subjects
3_M,23,M,250+1000,292,1,2250,long,3,4,4,550,1000,Within-Subjects
3_M,23,M,250+1000,293,1,307,long,3,4,4,750,1000,Within-Subjects
3_M,23,M,250+1000,294,1,401,long,3,4,4,650,1000,Within-Subjects
3_M,23,M,250+1000,295,1,613,short,3,2,2,250,1000,Within-Subjects
3_M,23,M,250+1000,296,0,1010,long,5,3,3,550,1000,Within-Subjects
3_M,23,M,250+1000,297,0,487,short,5,4,4,350,1000,Within-Subjects
3_M,23,M,250+1000,298,0,576,short,1,3,3,450,1000,Within-Subjects
3_M,23,M,250+1000,299,1,494,short,5,2,2,450,1000,Within-Subjects
3_M,23,M,250+1000,300,1,474,short,4,6,6,250,250,Within-Subjects
3_M,23,M,250+1000,301,1,994,short,1,4,4,350,1000,Within-Subjects
3_M,23,M,250+1000,302,1,428,short,6,4,4,350,1000,Within-Subjects
3_M,23,M,250+1000,303,1,1420,short,3,2,2,550,250,Within-Subjects
3_M,23,M,250+1000,304,0,350,long,6,2,2,850,250,Within-Subjects
3_M,23,M,250+1000,305,1,1880,short,1,5,5,350,1000,Within-Subjects
3_M,23,M,250+1000,306,0,455,short,2,5,5,250,1000,Within-Subjects
3_M,23,M,250+1000,307,1,274,long,1,3,3,850,1000,Within-Subjects
3_M,23,M,250+1000,308,0,600,long,6,2,2,850,1000,Within-Subjects
3_M,23,M,250+1000,309,0,1210,short,2,4,4,450,250,Within-Subjects
3_M,23,M,250+1000,310,0,410,long,1,5,5,850,1000,Within-Subjects
3_M,23,M,250+1000,311,0,288,long,5,3,3,750,1000,Within-Subjects
3_M,23,M,250+1000,312,1,464,long,3,4,4,750,1000,Within-Subjects
3_M,23,M,250+1000,313,1,337,short,6,4,4,350,250,Within-Subjects
3_M,23,M,250+1000,314,1,971,short,2,3,3,350,1000,Within-Subjects
3_M,23,M,250+1000,315,1,333,long,1,4,4,650,1000,Within-Subjects
3_M,23,M,250+1000,316,0,3540,long,4,1,1,750,1000,Within-Subjects
3_M,23,M,250+1000,317,1,363,long,5,1,1,850,250,Within-Subjects
3_M,23,M,250+1000,318,0,483,short,2,4,4,250,250,Within-Subjects
3_M,23,M,250+1000,319,0,338,long,3,4,4,750,250,Within-Subjects
3_M,23,M,250+1000,320,0,407,long,3,2,2,650,1000,Within-Subjects
3_M,23,M,250+1000,321,1,432,short,5,2,2,450,1000,Within-Subjects
3_M,23,M,250+1000,322,0,592,short,2,1,1,350,250,Within-Subjects
3_M,23,M,250+1000,323,0,1400,long,3,5,5,650,250,Within-Subjects
3_M,23,M,250+1000,324,0,552,short,1,6,6,550,250,Within-Subjects
3_M,23,M,250+1000,325,1,636,long,5,6,6,750,250,Within-Subjects
3_M,23,M,250+1000,326,1,448,short,4,6,6,350,250,Within-Subjects
3_M,23,M,250+1000,327,1,468,short,6,5,5,250,1000,Within-Subjects
3_M,23,M,250+1000,328,0,436,long,4,2,2,650,1000,Within-Subjects
3_M,23,M,250+1000,329,0,314,long,3,1,1,850,1000,Within-Subjects
3_M,23,M,250+1000,330,0,468,long,4,2,2,550,250,Within-Subjects
3_M,23,M,250+1000,331,1,700,short,5,6,6,450,1000,Within-Subjects
3_M,23,M,250+1000,332,0,590,short,6,1,1,450,250,Within-Subjects
3_M,23,M,250+1000,333,0,506,short,3,5,5,250,1000,Within-Subjects
3_M,23,M,250+1000,334,0,348,long,5,1,1,650,250,Within-Subjects
3_M,23,M,250+1000,335,0,400,long,1,6,6,550,1000,Within-Subjects
3_M,23,M,250+1000,336,1,490,short,3,4,4,350,1000,Within-Subjects
3_M,23,M,250+1000,337,0,1820,short,5,6,6,450,1000,Within-Subjects
3_M,23,M,250+1000,338,1,345,long,6,5,5,750,250,Within-Subjects
3_M,23,M,250+1000,339,0,619,short,5,1,1,850,250,Within-Subjects
3_M,23,M,250+1000,340,1,341,long,2,1,1,850,250,Within-Subjects
3_M,23,M,250+1000,341,0,454,long,2,5,5,650,1000,Within-Subjects
3_M,23,M,250+1000,342,1,401,short,3,1,1,350,250,Within-Subjects
3_M,23,M,250+1000,343,1,795,long,6,4,4,550,250,Within-Subjects
3_M,23,M,250+1000,344,0,488,short,4,1,1,250,1000,Within-Subjects
3_M,23,M,250+1000,345,0,261,long,4,2,2,850,250,Within-Subjects
3_M,23,M,250+1000,346,0,502,long,3,4,4,550,250,Within-Subjects
3_M,23,M,250+1000,347,1,434,long,6,1,1,550,250,Within-Subjects
3_M,23,M,250+1000,348,1,274,long,5,2,2,850,250,Within-Subjects
3_M,23,M,250+1000,349,0,478,long,4,3,3,550,250,Within-Subjects
3_M,23,M,250+1000,350,1,482,long,4,5,5,850,1000,Within-Subjects
3_M,23,M,250+1000,351,1,4080,short,6,1,1,550,1000,Within-Subjects
3_M,23,M,250+1000,352,0,506,short,6,1,1,250,250,Within-Subjects
3_M,23,M,250+1000,353,1,250,long,1,2,2,850,250,Within-Subjects
3_M,23,M,250+1000,354,0,574,long,5,2,2,450,250,Within-Subjects
3_M,23,M,250+1000,355,0,1600,short,1,5,5,450,250,Within-Subjects
3_M,23,M,250+1000,356,1,1240,long,6,3,3,850,1000,Within-Subjects
3_M,23,M,250+1000,357,0,466,long,1,3,3,750,250,Within-Subjects
3_M,23,M,250+1000,358,0,338,long,4,1,1,750,1000,Within-Subjects
3_M,23,M,250+1000,359,1,790,long,5,3,3,650,1000,Within-Subjects
3_M,23,M,250+1000,360,1,741,short,4,6,6,250,1000,Within-Subjects
3_M,23,M,250+1000,361,1,812,short,6,4,4,350,1000,Within-Subjects
3_M,23,M,250+1000,362,1,531,long,3,6,6,550,1000,Within-Subjects
3_M,23,M,250+1000,363,0,4550,short,6,2,2,550,250,Within-Subjects
3_M,23,M,250+1000,364,0,443,short,4,3,3,350,1000,Within-Subjects
3_M,23,M,250+1000,365,0,413,short,1,2,2,350,250,Within-Subjects
3_M,23,M,250+1000,366,1,475,short,1,2,2,350,250,Within-Subjects
3_M,23,M,250+1000,367,0,485,short,2,5,5,250,250,Within-Subjects
3_M,23,M,250+1000,368,1,493,short,6,2,2,250,250,Within-Subjects
3_M,23,M,250+1000,369,1,473,short,4,2,2,250,250,Within-Subjects
3_M,23,M,250+1000,370,1,1360,long,4,5,5,750,1000,Within-Subjects
3_M,23,M,250+1000,371,0,872,long,3,6,6,550,250,Within-Subjects
3_M,23,M,250+1000,372,1,442,short,6,3,3,350,250,Within-Subjects
3_M,23,M,250+1000,373,1,432,short,3,4,4,250,250,Within-Subjects
3_M,23,M,250+1000,374,0,624,short,2,4,4,350,250,Within-Subjects
3_M,23,M,250+1000,375,1,342,long,1,4,4,650,250,Within-Subjects
3_M,23,M,250+1000,376,1,1900,long,5,2,2,450,1000,Within-Subjects
3_M,23,M,250+1000,377,0,670,short,1,2,2,450,250,Within-Subjects
3_M,23,M,250+1000,378,1,364,long,2,3,3,650,250,Within-Subjects
3_M,23,M,250+1000,379,1,480,long,2,3,3,750,250,Within-Subjects
3_M,23,M,250+1000,380,0,548,long,3,5,5,850,250,Within-Subjects
3_M,23,M,250+1000,381,0,416,long,1,3,3,750,250,Within-Subjects
3_M,23,M,250+1000,382,0,1570,short,4,6,6,350,250,Within-Subjects
3_M,23,M,250+1000,383,1,420,short,4,2,2,250,250,Within-Subjects
3_M,23,M,250+1000,384,1,584,long,5,3,3,750,1000,Within-Subjects
3_M,23,M,250+1000,385,0,355,long,3,5,5,750,250,Within-Subjects
3_M,23,M,250+1000,386,0,561,short,2,5,5,350,250,Within-Subjects
3_M,23,M,250+1000,387,1,414,long,1,2,2,750,1000,Within-Subjects
3_M,23,M,250+1000,388,1,2670,long,6,2,2,450,1000,Within-Subjects
3_M,23,M,250+1000,389,0,329,long,4,3,3,850,250,Within-Subjects
3_M,23,M,250+1000,390,1,1140,long,1,3,3,650,1000,Within-Subjects
3_M,23,M,250+1000,391,0,293,long,5,3,3,750,1000,Within-Subjects
3_M,23,M,250+1000,392,0,349,long,4,6,6,650,1000,Within-Subjects
3_M,23,M,250+1000,393,0,1410,short,5,4,4,450,1000,Within-Subjects
3_M,23,M,250+1000,394,0,611,short,6,3,3,350,1000,Within-Subjects
3_M,23,M,250+1000,395,0,601,short,1,6,6,350,1000,Within-Subjects
3_M,23,M,250+1000,396,0,451,short,2,3,3,250,1000,Within-Subjects
3_M,23,M,250+1000,397,1,487,short,3,1,1,250,1000,Within-Subjects
3_M,23,M,250+1000,398,0,1650,short,2,6,6,450,1000,Within-Subjects
3_M,23,M,250+1000,399,1,487,short,5,1,1,250,1000,Within-Subjects
3_M,23,M,250+1000,400,0,348,long,3,1,1,650,250,Within-Subjects
3_M,23,M,250+1000,401,0,240,long,4,1,1,750,250,Within-Subjects
3_M,23,M,250+1000,402,0,381,long,4,5,5,650,1000,Within-Subjects
3_M,23,M,250+1000,403,0,274,long,5,6,6,750,1000,Within-Subjects
3_M,23,M,250+1000,404,1,384,long,2,4,4,450,1000,Within-Subjects
3_M,23,M,250+1000,405,1,342,long,6,5,5,850,250,Within-Subjects
3_M,23,M,250+1000,406,1,1030,long,1,6,6,650,250,Within-Subjects
3_M,23,M,250+1000,407,0,1620,short,6,1,1,450,1000,Within-Subjects
3_M,23,M,250+1000,408,1,630,short,3,4,4,250,1000,Within-Subjects
3_M,23,M,250+1000,409,1,406,long,2,6,6,750,1000,Within-Subjects
3_M,23,M,250+1000,410,1,1330,long,2,5,5,650,1000,Within-Subjects
3_M,23,M,250+1000,411,1,538,short,5,4,4,250,250,Within-Subjects
3_M,23,M,250+1000,413,1,963,long,1,5,5,850,1000,Within-Subjects
3_M,23,M,250+1000,414,1,455,short,5,1,1,250,1000,Within-Subjects
3_M,23,M,250+1000,415,1,201,long,2,3,3,850,250,Within-Subjects
3_M,23,M,250+1000,416,1,1950,short,2,6,6,450,1000,Within-Subjects
3_M,23,M,250+1000,417,0,409,long,6,1,1,550,1000,Within-Subjects
3_M,23,M,250+1000,418,0,765,short,5,1,1,550,250,Within-Subjects
3_M,23,M,250+1000,419,1,455,short,3,6,6,250,250,Within-Subjects
3_M,23,M,250+1000,420,0,593,short,2,1,1,450,250,Within-Subjects
4_M,28,M,250+1000,1,0,734,long,3,5,3,850,1000,Within-Subjects
4_M,28,M,250+1000,3,1,1230,long,2,6,2,450,1000,Within-Subjects
4_M,28,M,250+1000,4,0,746,short,3,1,3,350,250,Within-Subjects
4_M,28,M,250+1000,6,0,1380,long,5,4,5,850,250,Within-Subjects
4_M,28,M,250+1000,7,1,456,long,3,5,3,850,250,Within-Subjects
4_M,28,M,250+1000,9,1,401,long,4,2,4,750,250,Within-Subjects
4_M,28,M,250+1000,10,0,1590,long,3,5,3,550,250,Within-Subjects
4_M,28,M,250+1000,11,0,482,long,5,3,5,850,250,Within-Subjects
4_M,28,M,250+1000,13,1,671,long,6,1,6,650,250,Within-Subjects
4_M,28,M,250+1000,14,1,394,long,1,4,1,850,250,Within-Subjects
4_M,28,M,250+1000,16,0,1420,short,4,3,4,450,250,Within-Subjects
4_M,28,M,250+1000,17,0,431,long,1,4,1,750,1000,Within-Subjects
4_M,28,M,250+1000,18,1,459,long,6,5,6,850,250,Within-Subjects
4_M,28,M,250+1000,19,0,741,short,6,5,6,350,250,Within-Subjects
4_M,28,M,250+1000,20,0,603,short,6,3,6,250,1000,Within-Subjects
4_M,28,M,250+1000,21,1,1390,short,1,3,1,350,1000,Within-Subjects
4_M,28,M,250+1000,22,0,309,long,5,1,5,850,250,Within-Subjects
4_M,28,M,250+1000,23,1,409,long,3,4,3,850,250,Within-Subjects
4_M,28,M,250+1000,24,0,565,short,1,2,1,250,250,Within-Subjects
4_M,28,M,250+1000,26,0,421,long,3,2,3,750,1000,Within-Subjects
4_M,28,M,250+1000,27,1,553,short,4,6,4,250,1000,Within-Subjects
4_M,28,M,250+1000,28,1,432,long,1,5,1,650,1000,Within-Subjects
4_M,28,M,250+1000,29,0,605,short,1,4,1,350,1000,Within-Subjects
4_M,28,M,250+1000,30,0,339,long,1,5,1,850,250,Within-Subjects
4_M,28,M,250+1000,31,0,669,short,6,4,6,250,250,Within-Subjects
4_M,28,M,250+1000,32,1,1280,long,3,1,3,650,250,Within-Subjects
4_M,28,M,250+1000,33,1,624,short,1,3,1,250,1000,Within-Subjects
4_M,28,M,250+1000,34,0,626,short,5,3,5,250,1000,Within-Subjects
4_M,28,M,250+1000,36,1,365,long,1,2,1,650,250,Within-Subjects
4_M,28,M,250+1000,37,0,485,long,4,6,4,750,250,Within-Subjects
4_M,28,M,250+1000,38,0,537,short,5,2,5,250,1000,Within-Subjects
4_M,28,M,250+1000,40,0,407,long,6,3,6,750,1000,Within-Subjects
4_M,28,M,250+1000,41,1,4270,long,5,4,5,450,250,Within-Subjects
4_M,28,M,250+1000,42,1,303,long,2,4,2,850,1000,Within-Subjects
4_M,28,M,250+1000,43,1,547,long,3,6,3,750,1000,Within-Subjects
4_M,28,M,250+1000,44,0,3380,long,2,3,2,650,250,Within-Subjects
4_M,28,M,250+1000,46,0,900,short,5,6,5,250,250,Within-Subjects
4_M,28,M,250+1000,47,0,321,long,2,1,2,750,1000,Within-Subjects
4_M,28,M,250+1000,48,1,970,long,1,3,1,650,250,Within-Subjects
4_M,28,M,250+1000,49,0,524,short,3,5,3,250,1000,Within-Subjects
4_M,28,M,250+1000,50,0,464,long,5,4,5,750,1000,Within-Subjects
4_M,28,M,250+1000,51,0,512,short,4,2,4,250,250,Within-Subjects
4_M,28,M,250+1000,52,0,702,short,2,1,2,350,1000,Within-Subjects
4_M,28,M,250+1000,53,1,1230,long,5,3,5,550,1000,Within-Subjects
4_M,28,M,250+1000,54,1,516,short,5,2,5,250,1000,Within-Subjects
4_M,28,M,250+1000,55,0,1100,long,4,5,4,650,1000,Within-Subjects
4_M,28,M,250+1000,56,0,568,long,6,4,6,650,250,Within-Subjects
4_M,28,M,250+1000,57,0,626,long,5,6,5,850,250,Within-Subjects
4_M,28,M,250+1000,58,0,562,short,1,3,1,350,250,Within-Subjects
4_M,28,M,250+1000,59,0,409,long,3,6,3,650,1000,Within-Subjects
4_M,28,M,250+1000,60,1,452,long,1,2,1,850,250,Within-Subjects
4_M,28,M,250+1000,61,1,542,short,6,1,6,350,250,Within-Subjects
4_M,28,M,250+1000,62,0,922,long,3,4,3,550,250,Within-Subjects
4_M,28,M,250+1000,63,0,535,short,4,6,4,350,250,Within-Subjects
4_M,28,M,250+1000,64,1,2860,short,6,2,6,550,1000,Within-Subjects
4_M,28,M,250+1000,65,0,825,long,3,6,3,550,250,Within-Subjects
4_M,28,M,250+1000,66,0,352,long,3,6,3,850,250,Within-Subjects
4_M,28,M,250+1000,67,1,285,long,2,3,2,850,250,Within-Subjects
4_M,28,M,250+1000,68,1,591,short,4,2,4,350,250,Within-Subjects
4_M,28,M,250+1000,70,0,249,long,2,1,2,750,1000,Within-Subjects
4_M,28,M,250+1000,71,0,393,long,1,5,1,550,250,Within-Subjects
4_M,28,M,250+1000,72,0,312,long,3,6,3,650,250,Within-Subjects
4_M,28,M,250+1000,73,1,447,long,6,2,6,550,1000,Within-Subjects
4_M,28,M,250+1000,74,0,471,short,4,1,4,250,1000,Within-Subjects
4_M,28,M,250+1000,75,1,530,short,5,4,5,350,250,Within-Subjects
4_M,28,M,250+1000,76,0,863,short,5,2,5,450,1000,Within-Subjects
4_M,28,M,250+1000,77,1,1120,long,6,3,6,750,250,Within-Subjects
4_M,28,M,250+1000,78,0,1440,long,1,6,1,450,250,Within-Subjects
4_M,28,M,250+1000,79,0,1450,long,1,5,1,650,1000,Within-Subjects
4_M,28,M,250+1000,80,1,456,short,2,6,2,250,250,Within-Subjects
4_M,28,M,250+1000,81,1,626,long,5,6,5,650,1000,Within-Subjects
4_M,28,M,250+1000,82,0,628,long,5,3,5,550,1000,Within-Subjects
4_M,28,M,250+1000,83,0,494,short,5,1,5,250,1000,Within-Subjects
4_M,28,M,250+1000,84,1,3500,long,1,6,1,450,250,Within-Subjects
4_M,28,M,250+1000,85,1,3570,long,2,3,2,450,1000,Within-Subjects
4_M,28,M,250+1000,86,1,3790,short,5,1,5,350,250,Within-Subjects
4_M,28,M,250+1000,87,0,396,long,5,3,5,650,250,Within-Subjects
4_M,28,M,250+1000,88,1,2340,long,3,5,3,350,250,Within-Subjects
4_M,28,M,250+1000,89,0,185,long,6,1,6,850,1000,Within-Subjects
4_M,28,M,250+1000,90,1,3180,short,4,6,4,250,250,Within-Subjects
4_M,28,M,250+1000,91,1,624,long,2,5,2,550,250,Within-Subjects
4_M,28,M,250+1000,92,1,310,long,6,5,6,750,1000,Within-Subjects
4_M,28,M,250+1000,93,1,393,long,2,3,2,550,250,Within-Subjects
4_M,28,M,250+1000,94,1,612,long,3,6,3,850,250,Within-Subjects
4_M,28,M,250+1000,95,1,1310,short,3,1,3,350,1000,Within-Subjects
4_M,28,M,250+1000,96,0,3310,short,4,2,4,450,1000,Within-Subjects
4_M,28,M,250+1000,97,1,1410,long,1,6,1,550,1000,Within-Subjects
4_M,28,M,250+1000,98,0,352,long,6,5,6,750,250,Within-Subjects
4_M,28,M,250+1000,99,1,2740,long,1,5,1,450,1000,Within-Subjects
4_M,28,M,250+1000,100,1,364,long,5,3,5,750,1000,Within-Subjects
4_M,28,M,250+1000,101,1,666,short,1,5,1,350,250,Within-Subjects
4_M,28,M,250+1000,102,0,418,long,6,3,6,750,250,Within-Subjects
4_M,28,M,250+1000,103,1,406,long,5,2,5,650,250,Within-Subjects
4_M,28,M,250+1000,104,0,510,short,2,4,2,350,1000,Within-Subjects
4_M,28,M,250+1000,107,1,465,long,4,1,4,850,1000,Within-Subjects
4_M,28,M,250+1000,108,0,331,long,5,3,5,750,250,Within-Subjects
4_M,28,M,250+1000,109,1,575,short,4,6,4,250,1000,Within-Subjects
4_M,28,M,250+1000,112,0,3680,long,1,4,1,450,1000,Within-Subjects
4_M,28,M,250+1000,113,1,1240,short,6,4,6,350,1000,Within-Subjects
4_M,28,M,250+1000,114,1,982,long,6,1,6,650,1000,Within-Subjects
4_M,28,M,250+1000,115,1,720,short,6,4,6,350,1000,Within-Subjects
4_M,28,M,250+1000,116,0,350,long,3,6,3,750,250,Within-Subjects
4_M,28,M,250+1000,117,0,878,short,5,2,5,350,250,Within-Subjects
4_M,28,M,250+1000,118,1,1230,long,1,5,1,450,250,Within-Subjects
4_M,28,M,250+1000,119,1,3250,short,6,2,6,250,250,Within-Subjects
4_M,28,M,250+1000,120,0,598,long,3,5,3,550,250,Within-Subjects
4_M,28,M,250+1000,121,1,4750,long,2,6,2,350,250,Within-Subjects
4_M,28,M,250+1000,122,0,226,long,4,2,4,850,250,Within-Subjects
4_M,28,M,250+1000,123,1,316,long,1,4,1,850,1000,Within-Subjects
4_M,28,M,250+1000,124,0,1930,long,1,4,1,650,1000,Within-Subjects
4_M,28,M,250+1000,125,1,2610,long,6,3,6,450,250,Within-Subjects
4_M,28,M,250+1000,126,0,453,long,4,1,4,850,250,Within-Subjects
4_M,28,M,250+1000,127,1,1270,long,6,1,6,550,1000,Within-Subjects
4_M,28,M,250+1000,128,1,545,short,3,4,3,250,1000,Within-Subjects
4_M,28,M,250+1000,131,1,1410,long,3,1,3,750,250,Within-Subjects
4_M,28,M,250+1000,132,1,770,long,6,2,6,650,250,Within-Subjects
4_M,28,M,250+1000,133,0,1340,long,1,2,1,450,250,Within-Subjects
4_M,28,M,250+1000,134,1,4640,short,1,2,1,550,1000,Within-Subjects
4_M,28,M,250+1000,135,0,532,long,2,1,2,750,250,Within-Subjects
4_M,28,M,250+1000,136,1,3000,short,3,4,3,450,1000,Within-Subjects
4_M,28,M,250+1000,137,0,847,short,3,4,3,350,1000,Within-Subjects
4_M,28,M,250+1000,138,1,1290,long,6,1,6,750,1000,Within-Subjects
4_M,28,M,250+1000,139,1,712,short,1,2,1,250,250,Within-Subjects
4_M,28,M,250+1000,140,0,1220,short,6,3,6,450,1000,Within-Subjects
4_M,28,M,250+1000,141,0,726,short,3,1,3,250,1000,Within-Subjects
4_M,28,M,250+1000,142,1,975,short,3,1,3,550,250,Within-Subjects
4_M,28,M,250+1000,143,0,914,long,4,5,4,650,250,Within-Subjects
4_M,28,M,250+1000,144,0,1240,short,1,4,1,450,250,Within-Subjects
4_M,28,M,250+1000,145,0,1180,long,6,3,6,650,250,Within-Subjects
4_M,28,M,250+1000,146,0,4720,short,3,2,3,550,1000,Within-Subjects
4_M,28,M,250+1000,147,1,559,short,2,1,2,250,250,Within-Subjects
4_M,28,M,250+1000,148,0,317,long,2,4,2,650,250,Within-Subjects
4_M,28,M,250+1000,150,0,2820,short,6,5,6,350,250,Within-Subjects
4_M,28,M,250+1000,151,0,378,long,3,6,3,550,1000,Within-Subjects
4_M,28,M,250+1000,152,0,4810,short,5,1,5,350,1000,Within-Subjects
4_M,28,M,250+1000,154,1,4030,short,3,1,3,550,250,Within-Subjects
4_M,28,M,250+1000,155,0,570,long,2,5,2,550,1000,Within-Subjects
4_M,28,M,250+1000,156,0,668,short,6,3,6,350,250,Within-Subjects
4_M,28,M,250+1000,157,0,605,short,3,2,3,250,1000,Within-Subjects
4_M,28,M,250+1000,158,0,2950,long,4,6,4,650,1000,Within-Subjects
4_M,28,M,250+1000,159,1,792,short,1,5,1,250,1000,Within-Subjects
4_M,28,M,250+1000,160,1,984,short,3,1,3,350,250,Within-Subjects
4_M,28,M,250+1000,161,1,460,long,4,6,4,750,1000,Within-Subjects
4_M,28,M,250+1000,162,0,510,short,6,2,6,350,250,Within-Subjects
4_M,28,M,250+1000,164,0,1850,short,5,3,5,450,250,Within-Subjects
4_M,28,M,250+1000,165,0,351,long,6,5,6,850,250,Within-Subjects
4_M,28,M,250+1000,166,1,1250,short,5,4,5,250,1000,Within-Subjects
4_M,28,M,250+1000,167,1,4090,short,2,6,2,450,250,Within-Subjects
4_M,28,M,250+1000,168,0,2040,long,3,5,3,450,1000,Within-Subjects
4_M,28,M,250+1000,169,1,3200,short,5,1,5,450,1000,Within-Subjects
4_M,28,M,250+1000,170,0,396,long,4,5,4,850,250,Within-Subjects
4_M,28,M,250+1000,171,1,1390,long,5,4,5,650,1000,Within-Subjects
4_M,28,M,250+1000,173,0,2650,long,1,4,1,550,1000,Within-Subjects
4_M,28,M,250+1000,174,1,1280,short,3,5,3,350,250,Within-Subjects
4_M,28,M,250+1000,175,0,3800,long,5,4,5,350,250,Within-Subjects
4_M,28,M,250+1000,176,0,780,short,6,4,6,250,250,Within-Subjects
4_M,28,M,250+1000,177,1,1220,short,4,1,4,350,250,Within-Subjects
4_M,28,M,250+1000,178,0,438,long,6,4,6,550,1000,Within-Subjects
4_M,28,M,250+1000,179,1,2730,short,6,4,6,350,250,Within-Subjects
4_M,28,M,250+1000,180,1,720,short,2,3,2,350,1000,Within-Subjects
4_M,28,M,250+1000,182,0,799,long,3,4,3,450,1000,Within-Subjects
4_M,28,M,250+1000,183,0,625,short,3,2,3,250,1000,Within-Subjects
4_M,28,M,250+1000,184,1,337,long,2,1,2,750,1000,Within-Subjects
4_M,28,M,250+1000,185,0,815,short,4,5,4,250,250,Within-Subjects
4_M,28,M,250+1000,186,1,1080,long,4,2,4,350,1000,Within-Subjects
4_M,28,M,250+1000,187,1,235,long,4,5,4,750,1000,Within-Subjects
4_M,28,M,250+1000,188,1,993,long,2,3,2,550,250,Within-Subjects
4_M,28,M,250+1000,189,0,525,long,2,6,2,650,250,Within-Subjects
4_M,28,M,250+1000,190,1,1300,long,4,3,4,450,1000,Within-Subjects
4_M,28,M,250+1000,191,1,3110,long,4,2,4,450,1000,Within-Subjects
4_M,28,M,250+1000,192,1,665,short,2,4,2,250,250,Within-Subjects
4_M,28,M,250+1000,193,0,628,long,6,1,6,850,250,Within-Subjects
4_M,28,M,250+1000,194,1,1820,long,1,2,1,850,250,Within-Subjects
4_M,28,M,250+1000,195,1,1590,long,3,4,3,550,1000,Within-Subjects
4_M,28,M,250+1000,196,1,2310,short,2,3,2,550,1000,Within-Subjects
4_M,28,M,250+1000,197,1,186,long,2,1,2,850,1000,Within-Subjects
4_M,28,M,250+1000,198,0,555,long,1,5,1,850,1000,Within-Subjects
4_M,28,M,250+1000,199,1,976,long,4,6,4,750,250,Within-Subjects
4_M,28,M,250+1000,200,0,514,long,4,2,4,650,250,Within-Subjects
4_M,28,M,250+1000,202,1,596,long,1,2,1,550,250,Within-Subjects
4_M,28,M,250+1000,203,1,1710,long,4,3,4,550,250,Within-Subjects
4_M,28,M,250+1000,204,0,1080,short,2,1,2,450,250,Within-Subjects
4_M,28,M,250+1000,205,1,308,long,5,2,5,850,250,Within-Subjects
4_M,28,M,250+1000,206,1,708,long,1,4,1,650,250,Within-Subjects
4_M,28,M,250+1000,207,0,470,long,1,3,1,750,1000,Within-Subjects
4_M,28,M,250+1000,208,0,416,long,3,6,3,750,1000,Within-Subjects
4_M,28,M,250+1000,209,0,746,long,4,3,4,850,1000,Within-Subjects
4_M,28,M,250+1000,210,1,411,long,6,5,6,750,250,Within-Subjects
4_M,28,M,250+1000,211,1,253,long,2,5,2,850,250,Within-Subjects
4_M,28,M,250+1000,212,1,4860,long,4,5,4,450,250,Within-Subjects
4_M,28,M,250+1000,213,0,399,long,4,1,4,650,1000,Within-Subjects
4_M,28,M,250+1000,214,1,627,short,4,3,4,350,1000,Within-Subjects
4_M,28,M,250+1000,215,0,775,short,1,6,1,250,250,Within-Subjects
4_M,28,M,250+1000,216,0,3060,short,5,4,5,350,1000,Within-Subjects
4_M,28,M,250+1000,217,1,433,long,6,5,6,550,250,Within-Subjects
4_M,28,M,250+1000,218,1,301,long,6,4,6,850,250,Within-Subjects
4_M,28,M,250+1000,219,1,349,long,3,5,3,850,1000,Within-Subjects
4_M,28,M,250+1000,220,0,0.199,long,2,4,2,350,1000,Within-Subjects
4_M,28,M,250+1000,221,0,818,short,4,2,4,350,250,Within-Subjects
4_M,28,M,250+1000,222,1,3030,short,3,1,3,350,1000,Within-Subjects
4_M,28,M,250+1000,223,0,280,long,2,4,2,850,1000,Within-Subjects
4_M,28,M,250+1000,224,0,4630,long,1,3,1,350,1000,Within-Subjects
4_M,28,M,250+1000,225,1,1110,short,3,2,3,250,1000,Within-Subjects
4_M,28,M,250+1000,226,1,918,short,3,2,3,250,1000,Within-Subjects
4_M,28,M,250+1000,227,1,572,short,2,6,2,250,250,Within-Subjects
4_M,28,M,250+1000,228,0,370,long,6,1,6,750,1000,Within-Subjects
4_M,28,M,250+1000,229,0,404,long,6,2,6,550,250,Within-Subjects
4_M,28,M,250+1000,230,1,494,long,2,5,2,850,1000,Within-Subjects
4_M,28,M,250+1000,231,1,386,long,4,6,4,850,1000,Within-Subjects
4_M,28,M,250+1000,232,1,438,long,6,5,6,850,1000,Within-Subjects
4_M,28,M,250+1000,233,1,350,long,2,3,2,650,1000,Within-Subjects
4_M,28,M,250+1000,235,0,3420,long,1,5,1,450,250,Within-Subjects
4_M,28,M,250+1000,236,1,697,short,2,4,2,250,250,Within-Subjects
4_M,28,M,250+1000,237,0,362,long,4,6,4,750,1000,Within-Subjects
4_M,28,M,250+1000,238,0,1270,long,5,6,5,550,250,Within-Subjects
4_M,28,M,250+1000,239,0,411,long,6,3,6,850,1000,Within-Subjects
4_M,28,M,250+1000,240,1,951,long,5,6,5,650,1000,Within-Subjects
4_M,28,M,250+1000,241,1,337,long,1,6,1,750,250,Within-Subjects
4_M,28,M,250+1000,242,1,529,long,3,5,3,550,250,Within-Subjects
4_M,28,M,250+1000,243,1,375,long,2,5,2,850,1000,Within-Subjects
4_M,28,M,250+1000,244,0,1610,long,2,5,2,750,1000,Within-Subjects
4_M,28,M,250+1000,245,0,412,long,5,6,5,650,250,Within-Subjects
4_M,28,M,250+1000,246,0,406,long,5,1,5,750,250,Within-Subjects
4_M,28,M,250+1000,247,0,1200,long,4,5,4,350,1000,Within-Subjects
4_M,28,M,250+1000,248,1,3200,short,2,6,2,250,250,Within-Subjects
4_M,28,M,250+1000,249,0,471,long,6,4,6,650,1000,Within-Subjects
4_M,28,M,250+1000,250,0,2240,long,6,2,6,650,250,Within-Subjects
4_M,28,M,250+1000,251,0,610,long,6,3,6,750,250,Within-Subjects
4_M,28,M,250+1000,252,1,1620,long,3,2,3,450,250,Within-Subjects
4_M,28,M,250+1000,253,0,1010,long,3,5,3,850,250,Within-Subjects
4_M,28,M,250+1000,254,1,1100,long,2,1,2,450,1000,Within-Subjects
4_M,28,M,250+1000,255,1,798,long,1,5,1,450,250,Within-Subjects
4_M,28,M,250+1000,256,1,316,long,6,4,6,750,1000,Within-Subjects
4_M,28,M,250+1000,257,1,490,long,1,6,1,550,1000,Within-Subjects
4_M,28,M,250+1000,258,1,399,long,4,1,4,750,250,Within-Subjects
4_M,28,M,250+1000,259,1,1790,short,1,2,1,250,1000,Within-Subjects
4_M,28,M,250+1000,260,0,1690,long,3,2,3,850,1000,Within-Subjects
4_M,28,M,250+1000,261,1,646,long,6,5,6,750,1000,Within-Subjects
4_M,28,M,250+1000,262,0,1350,long,4,5,4,750,250,Within-Subjects
4_M,28,M,250+1000,263,1,581,long,1,3,1,750,250,Within-Subjects
4_M,28,M,250+1000,264,1,2890,short,5,2,5,250,250,Within-Subjects
4_M,28,M,250+1000,266,0,1370,short,4,1,4,250,1000,Within-Subjects
4_M,28,M,250+1000,267,0,2460,short,6,5,6,350,250,Within-Subjects
4_M,28,M,250+1000,268,1,3560,long,2,1,2,650,1000,Within-Subjects
4_M,28,M,250+1000,269,1,1250,short,2,6,2,350,1000,Within-Subjects
4_M,28,M,250+1000,270,0,355,long,5,6,5,850,250,Within-Subjects
4_M,28,M,250+1000,271,1,405,long,5,4,5,850,1000,Within-Subjects
4_M,28,M,250+1000,272,1,1140,short,5,6,5,250,250,Within-Subjects
4_M,28,M,250+1000,273,1,494,long,5,6,5,650,1000,Within-Subjects
4_M,28,M,250+1000,274,0,444,long,4,3,4,650,250,Within-Subjects
4_M,28,M,250+1000,275,1,400,long,1,3,1,850,1000,Within-Subjects
4_M,28,M,250+1000,276,1,110,long,4,6,4,850,1000,Within-Subjects
4_M,28,M,250+1000,277,1,276,long,3,2,3,650,1000,Within-Subjects
4_M,28,M,250+1000,278,0,808,short,4,3,4,250,250,Within-Subjects
4_M,28,M,250+1000,279,1,4070,short,2,6,2,650,250,Within-Subjects
4_M,28,M,250+1000,280,1,1140,short,6,1,6,250,1000,Within-Subjects
4_M,28,M,250+1000,281,0,863,short,2,5,2,350,250,Within-Subjects
4_M,28,M,250+1000,282,0,659,short,4,3,4,250,250,Within-Subjects
4_M,28,M,250+1000,283,1,536,long,5,1,5,750,1000,Within-Subjects
4_M,28,M,250+1000,284,1,634,long,3,1,3,750,1000,Within-Subjects
4_M,28,M,250+1000,285,0,1940,long,5,3,5,550,250,Within-Subjects
4_M,28,M,250+1000,286,0,637,long,2,4,2,550,250,Within-Subjects
4_M,28,M,250+1000,287,1,3610,short,4,1,4,450,1000,Within-Subjects
4_M,28,M,250+1000,288,0,3810,long,3,2,3,550,250,Within-Subjects
4_M,28,M,250+1000,290,0,762,short,2,5,2,350,1000,Within-Subjects
4_M,28,M,250+1000,291,1,638,short,6,4,6,350,1000,Within-Subjects
4_M,28,M,250+1000,292,1,656,short,1,5,1,450,1000,Within-Subjects
4_M,28,M,250+1000,293,1,546,short,1,3,1,350,1000,Within-Subjects
4_M,28,M,250+1000,294,0,594,long,1,3,1,750,1000,Within-Subjects
4_M,28,M,250+1000,295,1,518,long,1,2,1,650,1000,Within-Subjects
4_M,28,M,250+1000,296,1,582,long,1,6,1,550,250,Within-Subjects
4_M,28,M,250+1000,298,1,325,long,2,3,2,850,250,Within-Subjects
4_M,28,M,250+1000,299,1,495,long,5,1,5,650,1000,Within-Subjects
4_M,28,M,250+1000,300,0,1060,long,1,6,1,450,1000,Within-Subjects
4_M,28,M,250+1000,301,0,1670,long,4,6,4,450,1000,Within-Subjects
4_M,28,M,250+1000,302,1,1090,short,4,2,4,350,1000,Within-Subjects
4_M,28,M,250+1000,303,0,249,long,6,4,6,850,250,Within-Subjects
4_M,28,M,250+1000,305,0,295,long,4,5,4,750,1000,Within-Subjects
4_M,28,M,250+1000,307,1,384,long,2,4,2,750,250,Within-Subjects
4_M,28,M,250+1000,308,0,386,long,1,2,1,850,250,Within-Subjects
4_M,28,M,250+1000,309,0,3820,long,6,1,6,550,250,Within-Subjects
4_M,28,M,250+1000,310,0,2470,short,2,6,2,450,1000,Within-Subjects
4_M,28,M,250+1000,311,1,588,long,1,4,1,750,1000,Within-Subjects
4_M,28,M,250+1000,312,1,2160,short,2,4,2,450,250,Within-Subjects
4_M,28,M,250+1000,313,1,255,long,2,6,2,850,250,Within-Subjects
4_M,28,M,250+1000,315,1,960,short,3,1,3,250,1000,Within-Subjects
4_M,28,M,250+1000,316,1,294,long,4,5,4,850,1000,Within-Subjects
4_M,28,M,250+1000,317,1,1100,long,1,5,1,650,250,Within-Subjects
4_M,28,M,250+1000,318,1,2360,long,6,1,6,550,1000,Within-Subjects
4_M,28,M,250+1000,319,0,567,short,2,5,2,250,250,Within-Subjects
4_M,28,M,250+1000,320,0,367,long,2,4,2,750,250,Within-Subjects
4_M,28,M,250+1000,321,1,3460,long,1,2,1,550,250,Within-Subjects
4_M,28,M,250+1000,324,1,1030,long,5,2,5,550,1000,Within-Subjects
4_M,28,M,250+1000,325,0,840,short,1,6,1,350,1000,Within-Subjects
4_M,28,M,250+1000,326,1,350,long,1,6,1,750,250,Within-Subjects
4_M,28,M,250+1000,327,0,464,long,3,6,3,650,1000,Within-Subjects
4_M,28,M,250+1000,328,0,1190,long,5,4,5,450,1000,Within-Subjects
4_M,28,M,250+1000,329,0,406,long,4,3,4,550,1000,Within-Subjects
4_M,28,M,250+1000,330,0,1090,short,2,4,2,250,1000,Within-Subjects
4_M,28,M,250+1000,331,1,471,long,5,3,5,650,1000,Within-Subjects
4_M,28,M,250+1000,332,0,367,long,5,3,5,650,1000,Within-Subjects
4_M,28,M,250+1000,333,0,2700,short,5,1,5,550,1000,Within-Subjects
4_M,28,M,250+1000,334,1,863,long,1,6,1,550,1000,Within-Subjects
4_M,28,M,250+1000,335,1,243,long,3,5,3,750,1000,Within-Subjects
4_M,28,M,250+1000,336,0,713,short,2,3,2,250,1000,Within-Subjects
4_M,28,M,250+1000,337,1,543,short,1,6,1,250,1000,Within-Subjects
4_M,28,M,250+1000,338,1,434,long,4,3,4,650,250,Within-Subjects
4_M,28,M,250+1000,340,1,478,long,5,6,5,550,1000,Within-Subjects
4_M,28,M,250+1000,341,0,406,long,4,1,4,650,1000,Within-Subjects
4_M,28,M,250+1000,342,0,410,long,4,1,4,550,1000,Within-Subjects
4_M,28,M,250+1000,343,1,420,long,2,4,2,650,250,Within-Subjects
4_M,28,M,250+1000,344,0,644,short,1,3,1,250,250,Within-Subjects
4_M,28,M,250+1000,345,1,4300,short,6,4,6,450,250,Within-Subjects
4_M,28,M,250+1000,346,0,426,long,3,6,3,850,1000,Within-Subjects
4_M,28,M,250+1000,347,0,1540,short,5,1,5,350,250,Within-Subjects
4_M,28,M,250+1000,348,1,325,long,2,5,2,750,250,Within-Subjects
4_M,28,M,250+1000,349,0,1170,long,5,2,5,550,1000,Within-Subjects
4_M,28,M,250+1000,350,1,643,short,3,1,3,250,250,Within-Subjects
4_M,28,M,250+1000,351,0,766,long,2,3,2,850,1000,Within-Subjects
4_M,28,M,250+1000,352,0,1540,short,1,4,1,250,250,Within-Subjects
4_M,28,M,250+1000,353,0,865,long,3,5,3,750,250,Within-Subjects
4_M,28,M,250+1000,354,0,1300,short,2,5,2,250,250,Within-Subjects
4_M,28,M,250+1000,355,1,3100,short,3,4,3,250,1000,Within-Subjects
4_M,28,M,250+1000,357,0,330,long,6,4,6,750,250,Within-Subjects
4_M,28,M,250+1000,358,0,732,short,5,1,5,250,250,Within-Subjects
4_M,28,M,250+1000,359,0,281,long,6,2,6,650,1000,Within-Subjects
4_M,28,M,250+1000,360,0,2290,short,5,2,5,350,250,Within-Subjects
4_M,28,M,250+1000,361,1,26.8,long,5,2,5,750,1000,Within-Subjects
4_M,28,M,250+1000,362,0,268,long,3,6,3,650,1000,Within-Subjects
4_M,28,M,250+1000,363,1,753,long,6,5,6,750,1000,Within-Subjects
4_M,28,M,250+1000,364,1,700,short,3,5,3,250,250,Within-Subjects
4_M,28,M,250+1000,365,1,3520,short,2,1,2,450,1000,Within-Subjects
4_M,28,M,250+1000,366,0,384,long,2,3,2,850,1000,Within-Subjects
4_M,28,M,250+1000,367,0,274,long,6,2,6,750,1000,Within-Subjects
4_M,28,M,250+1000,368,0,376,long,6,3,6,650,250,Within-Subjects
4_M,28,M,250+1000,369,1,275,long,6,1,6,750,250,Within-Subjects
4_M,28,M,250+1000,370,0,911,short,1,3,1,350,1000,Within-Subjects
4_M,28,M,250+1000,371,0,199,long,4,1,4,650,1000,Within-Subjects
4_M,28,M,250+1000,372,0,263,long,4,2,4,850,1000,Within-Subjects
4_M,28,M,250+1000,373,1,301,long,3,2,3,850,1000,Within-Subjects
4_M,28,M,250+1000,374,1,1380,short,3,4,3,350,1000,Within-Subjects
4_M,28,M,250+1000,375,1,573,short,5,4,5,250,250,Within-Subjects
4_M,28,M,250+1000,376,0,149,long,2,6,2,850,1000,Within-Subjects
4_M,28,M,250+1000,377,0,289,long,1,4,1,750,250,Within-Subjects
4_M,28,M,250+1000,378,0,409,long,4,5,4,550,250,Within-Subjects
4_M,28,M,250+1000,379,0,439,long,4,1,4,650,1000,Within-Subjects
4_M,28,M,250+1000,380,1,309,long,3,1,3,650,250,Within-Subjects
4_M,28,M,250+1000,381,1,286,long,5,1,5,850,250,Within-Subjects
4_M,28,M,250+1000,382,0,331,long,3,2,3,550,1000,Within-Subjects
4_M,28,M,250+1000,383,1,272,long,5,3,5,750,250,Within-Subjects
4_M,28,M,250+1000,384,0,48.7,long,2,3,2,850,1000,Within-Subjects
4_M,28,M,250+1000,385,1,296,long,6,2,6,750,250,Within-Subjects
4_M,28,M,250+1000,386,1,326,long,1,4,1,750,250,Within-Subjects
4_M,28,M,250+1000,387,1,2100,short,1,6,1,350,250,Within-Subjects
4_M,28,M,250+1000,388,0,216,long,2,5,2,750,250,Within-Subjects
4_M,28,M,250+1000,389,1,1040,long,6,2,6,650,250,Within-Subjects
4_M,28,M,250+1000,390,1,2190,short,5,1,5,450,1000,Within-Subjects
4_M,28,M,250+1000,391,1,314,long,4,3,4,550,1000,Within-Subjects
4_M,28,M,250+1000,392,0,3170,short,5,3,5,450,250,Within-Subjects
4_M,28,M,250+1000,393,1,912,short,5,6,5,350,250,Within-Subjects
4_M,28,M,250+1000,394,1,4830,short,1,2,1,450,250,Within-Subjects
4_M,28,M,250+1000,395,0,386,long,6,5,6,750,1000,Within-Subjects
4_M,28,M,250+1000,396,0,728,short,5,4,5,250,1000,Within-Subjects
4_M,28,M,250+1000,397,1,544,short,2,1,2,250,250,Within-Subjects
4_M,28,M,250+1000,398,1,304,long,3,4,3,850,1000,Within-Subjects
4_M,28,M,250+1000,399,0,2640,short,6,2,6,450,250,Within-Subjects
4_M,28,M,250+1000,400,1,1540,short,5,2,5,350,1000,Within-Subjects
4_M,28,M,250+1000,401,1,2740,long,5,4,5,650,1000,Within-Subjects
4_M,28,M,250+1000,402,0,4980,long,1,3,1,550,1000,Within-Subjects
4_M,28,M,250+1000,403,0,4310,short,4,5,4,450,250,Within-Subjects
4_M,28,M,250+1000,404,1,523,short,3,4,3,350,1000,Within-Subjects
4_M,28,M,250+1000,405,1,4930,long,6,1,6,550,250,Within-Subjects
4_M,28,M,250+1000,406,1,533,short,5,6,5,250,1000,Within-Subjects
4_M,28,M,250+1000,407,0,637,short,4,5,4,250,1000,Within-Subjects
4_M,28,M,250+1000,408,0,537,short,2,5,2,250,250,Within-Subjects
4_M,28,M,250+1000,409,1,445,long,4,6,4,850,250,Within-Subjects
4_M,28,M,250+1000,410,1,542,short,2,4,2,350,250,Within-Subjects
4_M,28,M,250+1000,411,0,622,long,3,1,3,650,250,Within-Subjects
4_M,28,M,250+1000,412,0,355,long,3,2,3,750,250,Within-Subjects
4_M,28,M,250+1000,413,0,3310,short,2,1,2,450,250,Within-Subjects
4_M,28,M,250+1000,414,0,1220,short,4,3,4,350,250,Within-Subjects
4_M,28,M,250+1000,415,1,758,long,1,2,1,550,250,Within-Subjects
4_M,28,M,250+1000,416,0,310,long,3,6,3,850,1000,Within-Subjects
4_M,28,M,250+1000,417,0,1400,long,1,6,1,650,1000,Within-Subjects
4_M,28,M,250+1000,418,0,426,long,3,4,3,850,1000,Within-Subjects
4_M,28,M,250+1000,419,0,4250,short,5,3,5,250,1000,Within-Subjects
4_M,28,M,250+1000,420,0,2100,short,1,3,1,550,250,Within-Subjects
5_M,27,M,250+1000,3,0,782,long,6,4,6,750,250,Within-Subjects
5_M,27,M,250+1000,4,0,624,long,6,1,1,850,1000,Within-Subjects
5_M,27,M,250+1000,5,0,861,short,1,2,1,450,250,Within-Subjects
5_M,27,M,250+1000,6,0,590,short,6,2,6,250,1000,Within-Subjects
5_M,27,M,250+1000,7,1,356,long,1,2,2,750,1000,Within-Subjects
5_M,27,M,250+1000,8,0,465,short,3,6,3,250,1000,Within-Subjects
5_M,27,M,250+1000,9,1,381,long,1,4,1,850,1000,Within-Subjects
5_M,27,M,250+1000,10,0,455,long,2,5,2,850,250,Within-Subjects
5_M,27,M,250+1000,11,0,549,short,6,1,6,350,1000,Within-Subjects
5_M,27,M,250+1000,12,0,497,short,4,6,6,350,250,Within-Subjects
5_M,27,M,250+1000,13,0,1440,short,5,6,5,550,250,Within-Subjects
5_M,27,M,250+1000,14,1,482,short,6,5,5,350,1000,Within-Subjects
5_M,27,M,250+1000,15,0,1220,short,2,6,2,450,250,Within-Subjects
5_M,27,M,250+1000,16,1,616,short,2,1,2,450,250,Within-Subjects
5_M,27,M,250+1000,17,1,500,long,4,5,4,850,250,Within-Subjects
5_M,27,M,250+1000,18,1,4700,short,6,1,6,550,1000,Within-Subjects
5_M,27,M,250+1000,19,1,518,short,4,1,4,250,250,Within-Subjects
5_M,27,M,250+1000,20,0,2990,short,6,3,3,450,1000,Within-Subjects
5_M,27,M,250+1000,21,0,1020,short,2,6,6,550,250,Within-Subjects
5_M,27,M,250+1000,22,0,910,short,2,1,1,350,1000,Within-Subjects
5_M,27,M,250+1000,23,1,408,long,4,2,4,650,250,Within-Subjects
5_M,27,M,250+1000,24,1,476,short,5,4,5,450,250,Within-Subjects
5_M,27,M,250+1000,26,0,411,short,3,1,3,250,250,Within-Subjects
5_M,27,M,250+1000,27,1,757,short,4,1,4,250,1000,Within-Subjects
5_M,27,M,250+1000,28,0,677,short,6,1,6,450,250,Within-Subjects
5_M,27,M,250+1000,29,1,405,short,3,1,3,450,1000,Within-Subjects
5_M,27,M,250+1000,30,0,399,short,4,5,4,250,1000,Within-Subjects
5_M,27,M,250+1000,31,1,585,long,5,6,5,850,250,Within-Subjects
5_M,27,M,250+1000,32,0,425,long,4,6,4,550,250,Within-Subjects
5_M,27,M,250+1000,33,1,361,long,4,3,4,750,250,Within-Subjects
5_M,27,M,250+1000,34,0,281,long,5,2,5,750,250,Within-Subjects
5_M,27,M,250+1000,35,0,375,short,3,2,3,250,1000,Within-Subjects
5_M,27,M,250+1000,36,0,2900,short,2,3,2,450,1000,Within-Subjects
5_M,27,M,250+1000,37,0,362,short,5,3,3,350,250,Within-Subjects
5_M,27,M,250+1000,38,0,358,short,5,3,3,350,250,Within-Subjects
5_M,27,M,250+1000,39,1,1490,long,6,3,3,650,250,Within-Subjects
5_M,27,M,250+1000,40,0,2880,short,6,1,1,450,1000,Within-Subjects
5_M,27,M,250+1000,41,1,294,long,5,4,4,850,250,Within-Subjects
5_M,27,M,250+1000,42,1,346,long,1,2,1,750,250,Within-Subjects
5_M,27,M,250+1000,43,1,418,short,1,3,1,350,1000,Within-Subjects
5_M,27,M,250+1000,44,1,436,short,2,3,2,350,1000,Within-Subjects
5_M,27,M,250+1000,45,1,484,long,3,6,3,850,250,Within-Subjects
5_M,27,M,250+1000,46,1,4400,long,4,1,1,850,250,Within-Subjects
5_M,27,M,250+1000,47,1,4810,short,2,5,2,550,1000,Within-Subjects
5_M,27,M,250+1000,48,1,352,long,4,5,4,850,250,Within-Subjects
5_M,27,M,250+1000,49,1,497,short,6,2,6,550,250,Within-Subjects
5_M,27,M,250+1000,50,0,333,long,5,2,2,750,250,Within-Subjects
5_M,27,M,250+1000,51,0,509,short,2,3,3,250,1000,Within-Subjects
5_M,27,M,250+1000,53,0,323,long,4,1,4,850,1000,Within-Subjects
5_M,27,M,250+1000,54,1,243,long,5,3,5,850,1000,Within-Subjects
5_M,27,M,250+1000,55,1,481,long,1,5,5,750,250,Within-Subjects
5_M,27,M,250+1000,56,0,46.9,long,1,4,1,850,250,Within-Subjects
5_M,27,M,250+1000,57,0,255,long,3,6,3,750,1000,Within-Subjects
5_M,27,M,250+1000,58,0,425,short,1,2,2,350,1000,Within-Subjects
5_M,27,M,250+1000,59,0,1050,short,6,4,6,550,1000,Within-Subjects
5_M,27,M,250+1000,60,0,339,long,1,2,1,750,1000,Within-Subjects
5_M,27,M,250+1000,61,0,3300,long,4,2,2,850,1000,Within-Subjects
5_M,27,M,250+1000,62,0,547,long,1,4,1,750,1000,Within-Subjects
5_M,27,M,250+1000,63,0,492,short,1,5,5,450,250,Within-Subjects
5_M,27,M,250+1000,64,0,525,short,1,4,1,450,1000,Within-Subjects
5_M,27,M,250+1000,65,1,429,short,1,4,4,250,1000,Within-Subjects
5_M,27,M,250+1000,66,0,337,long,6,4,6,850,250,Within-Subjects
5_M,27,M,250+1000,67,0,316,long,6,5,5,850,1000,Within-Subjects
5_M,27,M,250+1000,68,0,316,long,3,1,3,750,1000,Within-Subjects
5_M,27,M,250+1000,69,0,396,long,1,5,5,850,250,Within-Subjects
5_M,27,M,250+1000,70,1,326,long,4,2,4,650,1000,Within-Subjects
5_M,27,M,250+1000,71,1,408,short,1,2,2,350,250,Within-Subjects
5_M,27,M,250+1000,72,1,672,long,3,6,3,850,1000,Within-Subjects
5_M,27,M,250+1000,73,1,286,long,5,3,3,850,250,Within-Subjects
5_M,27,M,250+1000,74,1,308,long,4,6,4,750,1000,Within-Subjects
5_M,27,M,250+1000,75,0,566,short,3,2,2,550,250,Within-Subjects
5_M,27,M,250+1000,76,0,2930,long,4,5,4,550,1000,Within-Subjects
5_M,27,M,250+1000,77,1,392,short,1,6,1,250,1000,Within-Subjects
5_M,27,M,250+1000,79,0,727,short,1,3,3,450,250,Within-Subjects
5_M,27,M,250+1000,80,0,519,short,2,5,2,450,250,Within-Subjects
5_M,27,M,250+1000,81,0,543,short,3,2,3,350,1000,Within-Subjects
5_M,27,M,250+1000,82,0,261,long,4,5,5,850,250,Within-Subjects
5_M,27,M,250+1000,83,1,485,short,4,3,4,450,250,Within-Subjects
5_M,27,M,250+1000,84,1,377,short,3,4,3,850,1000,Within-Subjects
5_M,27,M,250+1000,85,1,842,short,3,2,3,450,1000,Within-Subjects
5_M,27,M,250+1000,86,0,444,short,3,1,3,250,250,Within-Subjects
5_M,27,M,250+1000,87,1,846,short,6,1,6,250,250,Within-Subjects
5_M,27,M,250+1000,88,1,3450,short,6,2,6,650,250,Within-Subjects
5_M,27,M,250+1000,89,0,451,short,6,1,6,250,250,Within-Subjects
5_M,27,M,250+1000,90,0,237,long,2,4,4,650,1000,Within-Subjects
5_M,27,M,250+1000,91,0,311,long,4,2,2,650,250,Within-Subjects
5_M,27,M,250+1000,92,0,256,long,1,5,1,750,1000,Within-Subjects
5_M,27,M,250+1000,93,1,447,short,3,4,4,250,1000,Within-Subjects
5_M,27,M,250+1000,94,1,564,long,6,5,6,750,1000,Within-Subjects
5_M,27,M,250+1000,95,1,3280,long,1,4,4,850,1000,Within-Subjects
5_M,27,M,250+1000,96,1,267,long,4,6,4,750,1000,Within-Subjects
5_M,27,M,250+1000,97,0,2410,short,3,6,6,450,1000,Within-Subjects
5_M,27,M,250+1000,98,1,523,short,5,1,5,550,250,Within-Subjects
5_M,27,M,250+1000,99,1,2090,long,3,4,4,750,1000,Within-Subjects
5_M,27,M,250+1000,100,0,445,long,2,1,2,750,250,Within-Subjects
5_M,27,M,250+1000,101,0,277,long,4,5,5,850,250,Within-Subjects
5_M,27,M,250+1000,102,1,563,short,5,2,5,450,1000,Within-Subjects
5_M,27,M,250+1000,103,1,565,short,6,4,6,450,250,Within-Subjects
5_M,27,M,250+1000,104,0,540,long,6,1,1,650,250,Within-Subjects
5_M,27,M,250+1000,105,1,418,short,2,5,2,250,250,Within-Subjects
5_M,27,M,250+1000,106,0,320,long,3,4,4,750,250,Within-Subjects
5_M,27,M,250+1000,107,1,579,long,6,3,6,750,1000,Within-Subjects
5_M,27,M,250+1000,108,1,370,long,4,3,4,850,250,Within-Subjects
5_M,27,M,250+1000,109,0,2000,long,2,1,1,650,250,Within-Subjects
5_M,27,M,250+1000,110,0,472,short,6,5,6,350,250,Within-Subjects
5_M,27,M,250+1000,111,1,471,short,5,2,5,350,1000,Within-Subjects
5_M,27,M,250+1000,112,1,4690,short,1,3,3,650,1000,Within-Subjects
5_M,27,M,250+1000,113,1,550,short,6,2,6,550,1000,Within-Subjects
5_M,27,M,250+1000,114,1,464,long,4,3,3,750,1000,Within-Subjects
5_M,27,M,250+1000,115,1,2200,long,1,2,1,650,250,Within-Subjects
5_M,27,M,250+1000,116,0,2860,short,4,3,3,450,1000,Within-Subjects
5_M,27,M,250+1000,117,1,910,short,5,1,5,550,250,Within-Subjects
5_M,27,M,250+1000,118,1,3530,short,2,4,4,550,1000,Within-Subjects
5_M,27,M,250+1000,119,1,4500,short,2,3,2,550,1000,Within-Subjects
5_M,27,M,250+1000,120,0,501,short,4,5,4,250,250,Within-Subjects
5_M,27,M,250+1000,121,0,409,long,6,1,1,550,1000,Within-Subjects
5_M,27,M,250+1000,122,1,703,long,2,4,2,650,250,Within-Subjects
5_M,27,M,250+1000,123,1,2440,short,3,6,3,550,250,Within-Subjects
5_M,27,M,250+1000,124,0,337,long,3,1,3,850,1000,Within-Subjects
5_M,27,M,250+1000,125,0,527,short,2,3,2,350,250,Within-Subjects
5_M,27,M,250+1000,126,0,564,short,5,3,3,350,1000,Within-Subjects
5_M,27,M,250+1000,127,1,459,long,4,5,5,850,250,Within-Subjects
5_M,27,M,250+1000,128,0,4060,short,1,6,1,850,1000,Within-Subjects
5_M,27,M,250+1000,129,1,580,short,1,2,1,250,250,Within-Subjects
5_M,27,M,250+1000,130,1,2370,long,4,2,2,650,250,Within-Subjects
5_M,27,M,250+1000,131,1,952,short,2,3,3,350,250,Within-Subjects
5_M,27,M,250+1000,132,0,490,short,4,3,4,350,1000,Within-Subjects
5_M,27,M,250+1000,133,1,426,short,6,3,3,250,1000,Within-Subjects
5_M,27,M,250+1000,134,0,1030,short,3,1,3,550,1000,Within-Subjects
5_M,27,M,250+1000,135,1,856,short,3,1,3,550,250,Within-Subjects
5_M,27,M,250+1000,136,1,378,long,3,6,3,650,1000,Within-Subjects
5_M,27,M,250+1000,137,1,2290,long,2,5,2,550,250,Within-Subjects
5_M,27,M,250+1000,139,0,1190,short,6,2,2,750,250,Within-Subjects
5_M,27,M,250+1000,140,0,483,short,6,3,6,350,1000,Within-Subjects
5_M,27,M,250+1000,141,1,520,long,1,3,1,850,1000,Within-Subjects
5_M,27,M,250+1000,142,1,675,short,2,1,1,550,250,Within-Subjects
5_M,27,M,250+1000,143,1,1490,long,6,2,6,650,1000,Within-Subjects
5_M,27,M,250+1000,144,1,407,short,6,5,6,350,250,Within-Subjects
5_M,27,M,250+1000,145,0,341,long,6,4,6,550,1000,Within-Subjects
5_M,27,M,250+1000,146,1,419,short,5,1,1,350,250,Within-Subjects
5_M,27,M,250+1000,147,0,1270,short,3,4,3,650,1000,Within-Subjects
5_M,27,M,250+1000,148,1,1870,short,1,5,1,550,250,Within-Subjects
5_M,27,M,250+1000,149,0,526,short,5,4,4,250,1000,Within-Subjects
5_M,27,M,250+1000,150,0,2610,short,4,6,4,550,250,Within-Subjects
5_M,27,M,250+1000,151,0,4080,long,5,6,6,550,250,Within-Subjects
5_M,27,M,250+1000,152,1,402,short,6,5,5,350,250,Within-Subjects
5_M,27,M,250+1000,153,0,500,long,5,2,2,550,1000,Within-Subjects
5_M,27,M,250+1000,154,0,3120,short,2,6,2,450,1000,Within-Subjects
5_M,27,M,250+1000,155,0,3120,short,3,5,3,650,1000,Within-Subjects
5_M,27,M,250+1000,156,1,441,short,3,1,3,350,1000,Within-Subjects
5_M,27,M,250+1000,157,1,1490,short,2,1,1,450,1000,Within-Subjects
5_M,27,M,250+1000,158,0,2050,long,5,6,6,650,250,Within-Subjects
5_M,27,M,250+1000,159,1,4440,short,6,1,1,650,1000,Within-Subjects
5_M,27,M,250+1000,160,1,3150,long,2,3,3,650,250,Within-Subjects
5_M,27,M,250+1000,161,1,557,short,6,5,6,250,1000,Within-Subjects
5_M,27,M,250+1000,162,1,457,short,5,4,4,250,250,Within-Subjects
5_M,27,M,250+1000,163,0,383,short,3,5,3,350,250,Within-Subjects
5_M,27,M,250+1000,164,1,361,long,5,4,4,750,1000,Within-Subjects
5_M,27,M,250+1000,165,0,407,short,5,3,5,350,1000,Within-Subjects
5_M,27,M,250+1000,166,1,1890,short,5,4,5,450,1000,Within-Subjects
5_M,27,M,250+1000,167,1,416,short,1,3,1,250,1000,Within-Subjects
5_M,27,M,250+1000,168,1,1080,short,5,1,1,550,1000,Within-Subjects
5_M,27,M,250+1000,169,1,480,short,3,1,3,350,250,Within-Subjects
5_M,27,M,250+1000,170,0,440,short,5,6,5,350,250,Within-Subjects
5_M,27,M,250+1000,171,1,1100,short,3,1,3,350,1000,Within-Subjects
5_M,27,M,250+1000,172,0,478,short,5,6,5,650,250,Within-Subjects
5_M,27,M,250+1000,173,0,4690,short,4,2,4,550,1000,Within-Subjects
5_M,27,M,250+1000,174,1,548,short,5,2,2,350,1000,Within-Subjects
5_M,27,M,250+1000,175,0,3190,long,5,3,5,550,250,Within-Subjects
5_M,27,M,250+1000,176,1,1130,short,4,3,3,450,250,Within-Subjects
5_M,27,M,250+1000,177,1,267,long,3,2,3,750,250,Within-Subjects
5_M,27,M,250+1000,178,0,459,short,2,3,2,250,250,Within-Subjects
5_M,27,M,250+1000,179,0,519,short,5,6,5,350,1000,Within-Subjects
5_M,27,M,250+1000,180,1,491,short,3,2,3,450,250,Within-Subjects
5_M,27,M,250+1000,181,1,369,long,1,3,1,550,1000,Within-Subjects
5_M,27,M,250+1000,182,1,489,short,3,5,3,250,250,Within-Subjects
5_M,27,M,250+1000,183,0,353,long,1,6,1,650,1000,Within-Subjects
5_M,27,M,250+1000,184,0,415,short,2,6,2,250,250,Within-Subjects
5_M,27,M,250+1000,185,1,494,short,4,3,3,350,250,Within-Subjects
5_M,27,M,250+1000,186,1,911,long,2,1,2,750,1000,Within-Subjects
5_M,27,M,250+1000,187,0,510,short,4,3,3,250,1000,Within-Subjects
5_M,27,M,250+1000,188,0,556,short,3,5,5,250,250,Within-Subjects
5_M,27,M,250+1000,189,0,412,short,5,1,1,250,1000,Within-Subjects
5_M,27,M,250+1000,190,0,3740,short,5,6,6,750,250,Within-Subjects
5_M,27,M,250+1000,191,1,1120,long,6,4,6,850,250,Within-Subjects
5_M,27,M,250+1000,192,0,270,long,3,4,3,850,250,Within-Subjects
5_M,27,M,250+1000,193,0,448,short,6,4,4,450,250,Within-Subjects
5_M,27,M,250+1000,194,0,2520,long,6,2,2,450,1000,Within-Subjects
5_M,27,M,250+1000,195,1,460,short,1,5,1,450,250,Within-Subjects
5_M,27,M,250+1000,196,0,2180,short,1,6,6,550,250,Within-Subjects
5_M,27,M,250+1000,197,0,3030,short,2,5,5,550,250,Within-Subjects
5_M,27,M,250+1000,198,0,2620,long,5,4,4,650,1000,Within-Subjects
5_M,27,M,250+1000,199,1,312,long,6,3,3,450,1000,Within-Subjects
5_M,27,M,250+1000,200,0,451,short,4,5,4,350,250,Within-Subjects
5_M,27,M,250+1000,201,0,274,long,1,4,4,850,1000,Within-Subjects
5_M,27,M,250+1000,202,1,3650,long,2,6,2,450,1000,Within-Subjects
5_M,27,M,250+1000,203,1,401,short,3,4,3,350,250,Within-Subjects
5_M,27,M,250+1000,204,0,441,short,3,4,4,250,1000,Within-Subjects
5_M,27,M,250+1000,205,1,1010,short,4,1,1,350,1000,Within-Subjects
5_M,27,M,250+1000,206,0,439,short,2,5,2,250,250,Within-Subjects
5_M,27,M,250+1000,207,1,991,short,5,1,1,250,1000,Within-Subjects
5_M,27,M,250+1000,208,1,305,long,1,4,1,750,250,Within-Subjects
5_M,27,M,250+1000,209,0,1620,short,3,2,3,350,1000,Within-Subjects
5_M,27,M,250+1000,210,0,333,long,1,4,1,850,1000,Within-Subjects
5_M,27,M,250+1000,211,1,703,long,2,1,2,750,1000,Within-Subjects
5_M,27,M,250+1000,212,0,385,long,1,2,1,650,250,Within-Subjects
5_M,27,M,250+1000,213,1,334,long,3,6,3,750,250,Within-Subjects
5_M,27,M,250+1000,214,1,562,long,2,1,2,550,1000,Within-Subjects
5_M,27,M,250+1000,215,1,268,long,2,5,2,750,250,Within-Subjects
5_M,27,M,250+1000,216,0,430,long,5,3,3,850,1000,Within-Subjects
5_M,27,M,250+1000,217,0,298,long,5,1,1,850,1000,Within-Subjects
5_M,27,M,250+1000,218,1,388,short,2,4,2,250,250,Within-Subjects
5_M,27,M,250+1000,219,1,492,short,5,1,1,450,250,Within-Subjects
5_M,27,M,250+1000,220,0,484,short,6,5,6,450,250,Within-Subjects
5_M,27,M,250+1000,221,1,656,long,6,2,2,850,250,Within-Subjects
5_M,27,M,250+1000,222,0,514,short,6,1,6,550,1000,Within-Subjects
5_M,27,M,250+1000,223,0,1820,long,6,1,1,750,1000,Within-Subjects
5_M,27,M,250+1000,224,1,208,long,6,4,6,850,1000,Within-Subjects
5_M,27,M,250+1000,225,1,1170,long,4,5,4,650,250,Within-Subjects
5_M,27,M,250+1000,226,0,1520,long,4,3,3,850,1000,Within-Subjects
5_M,27,M,250+1000,227,0,253,long,5,1,1,550,250,Within-Subjects
5_M,27,M,250+1000,228,0,263,long,5,3,3,850,1000,Within-Subjects
5_M,27,M,250+1000,229,1,1200,short,3,2,3,450,250,Within-Subjects
5_M,27,M,250+1000,230,1,371,short,2,6,2,350,250,Within-Subjects
5_M,27,M,250+1000,231,1,2430,long,2,6,6,450,1000,Within-Subjects
5_M,27,M,250+1000,232,0,260,long,5,2,2,650,1000,Within-Subjects
5_M,27,M,250+1000,233,0,183,long,3,1,3,850,1000,Within-Subjects
5_M,27,M,250+1000,234,0,2520,long,3,6,3,750,1000,Within-Subjects
5_M,27,M,250+1000,235,0,504,short,4,1,1,350,250,Within-Subjects
5_M,27,M,250+1000,236,1,602,short,5,2,2,450,250,Within-Subjects
5_M,27,M,250+1000,237,0,312,long,2,1,1,750,250,Within-Subjects
5_M,27,M,250+1000,238,1,532,short,2,5,2,450,250,Within-Subjects
5_M,27,M,250+1000,239,1,2960,long,1,5,5,550,1000,Within-Subjects
5_M,27,M,250+1000,240,1,1030,short,3,4,3,550,1000,Within-Subjects
5_M,27,M,250+1000,241,0,480,short,3,5,3,350,1000,Within-Subjects
5_M,27,M,250+1000,242,0,1350,long,1,3,1,750,250,Within-Subjects
5_M,27,M,250+1000,243,0,452,short,2,1,2,550,250,Within-Subjects
5_M,27,M,250+1000,244,1,391,short,1,6,6,250,1000,Within-Subjects
5_M,27,M,250+1000,245,0,908,short,5,2,5,750,250,Within-Subjects
5_M,27,M,250+1000,246,1,337,short,3,1,1,450,250,Within-Subjects
5_M,27,M,250+1000,247,1,884,long,4,6,6,650,250,Within-Subjects
5_M,27,M,250+1000,248,0,320,long,2,3,3,550,1000,Within-Subjects
5_M,27,M,250+1000,249,1,626,long,6,5,5,650,1000,Within-Subjects
5_M,27,M,250+1000,250,0,277,long,4,1,1,850,250,Within-Subjects
5_M,27,M,250+1000,251,1,381,short,5,1,5,250,1000,Within-Subjects
5_M,27,M,250+1000,252,1,1500,long,3,2,3,850,250,Within-Subjects
5_M,27,M,250+1000,253,0,2910,long,3,4,3,750,250,Within-Subjects
5_M,27,M,250+1000,254,1,455,short,4,3,4,350,1000,Within-Subjects
5_M,27,M,250+1000,255,0,553,short,1,6,1,350,250,Within-Subjects
5_M,27,M,250+1000,256,0,493,long,2,4,4,650,250,Within-Subjects
5_M,27,M,250+1000,257,1,529,short,4,2,4,650,1000,Within-Subjects
5_M,27,M,250+1000,258,0,2530,short,6,3,3,550,1000,Within-Subjects
5_M,27,M,250+1000,259,0,602,short,1,4,4,550,250,Within-Subjects
5_M,27,M,250+1000,260,1,231,long,3,6,6,850,1000,Within-Subjects
5_M,27,M,250+1000,261,0,361,short,2,1,1,350,250,Within-Subjects
5_M,27,M,250+1000,262,0,594,long,1,2,2,650,250,Within-Subjects
5_M,27,M,250+1000,263,0,225,long,4,2,4,850,1000,Within-Subjects
5_M,27,M,250+1000,264,1,3970,long,2,6,6,850,1000,Within-Subjects
5_M,27,M,250+1000,265,1,362,short,4,2,4,350,250,Within-Subjects
5_M,27,M,250+1000,266,0,510,short,5,4,4,250,1000,Within-Subjects
5_M,27,M,250+1000,267,0,386,short,3,2,3,750,1000,Within-Subjects
5_M,27,M,250+1000,268,0,764,short,1,5,5,550,1000,Within-Subjects
5_M,27,M,250+1000,269,1,326,long,6,3,3,750,1000,Within-Subjects
5_M,27,M,250+1000,270,0,742,long,5,6,6,550,250,Within-Subjects
5_M,27,M,250+1000,271,1,434,short,6,2,2,350,250,Within-Subjects
5_M,27,M,250+1000,272,1,484,short,5,1,1,750,1000,Within-Subjects
5_M,27,M,250+1000,273,1,958,short,5,4,4,250,1000,Within-Subjects
5_M,27,M,250+1000,274,1,370,long,6,4,6,850,1000,Within-Subjects
5_M,27,M,250+1000,275,0,486,short,2,6,2,450,250,Within-Subjects
5_M,27,M,250+1000,276,0,321,long,3,2,3,550,250,Within-Subjects
5_M,27,M,250+1000,277,1,1160,short,5,3,5,550,250,Within-Subjects
5_M,27,M,250+1000,278,1,2080,short,5,2,5,450,1000,Within-Subjects
5_M,27,M,250+1000,279,0,451,short,3,5,5,250,250,Within-Subjects
5_M,27,M,250+1000,280,1,347,long,6,3,3,550,1000,Within-Subjects
5_M,27,M,250+1000,281,0,473,long,2,5,2,550,1000,Within-Subjects
5_M,27,M,250+1000,282,1,313,long,3,5,5,750,250,Within-Subjects
5_M,27,M,250+1000,283,0,617,long,2,3,2,550,1000,Within-Subjects
5_M,27,M,250+1000,284,0,1310,short,6,4,4,450,250,Within-Subjects
5_M,27,M,250+1000,285,1,263,long,1,2,1,850,250,Within-Subjects
5_M,27,M,250+1000,286,0,383,short,4,6,6,250,1000,Within-Subjects
5_M,27,M,250+1000,287,1,407,short,5,6,6,350,250,Within-Subjects
5_M,27,M,250+1000,288,0,525,short,6,4,6,450,1000,Within-Subjects
5_M,27,M,250+1000,289,0,1670,long,6,5,5,650,1000,Within-Subjects
5_M,27,M,250+1000,290,1,419,long,5,2,5,550,250,Within-Subjects
5_M,27,M,250+1000,291,0,405,short,5,1,1,350,1000,Within-Subjects
5_M,27,M,250+1000,292,1,814,short,3,1,3,650,1000,Within-Subjects
5_M,27,M,250+1000,293,1,394,short,1,6,1,350,1000,Within-Subjects
5_M,27,M,250+1000,294,1,441,short,6,3,3,350,250,Within-Subjects
5_M,27,M,250+1000,295,1,392,short,3,6,3,550,250,Within-Subjects
5_M,27,M,250+1000,296,0,573,long,5,3,5,850,250,Within-Subjects
5_M,27,M,250+1000,297,0,388,short,1,4,1,250,250,Within-Subjects
5_M,27,M,250+1000,298,1,408,short,3,6,3,250,250,Within-Subjects
5_M,27,M,250+1000,299,0,325,long,1,3,1,750,1000,Within-Subjects
5_M,27,M,250+1000,300,0,454,short,3,4,4,550,250,Within-Subjects
5_M,27,M,250+1000,301,0,332,short,3,4,3,250,250,Within-Subjects
5_M,27,M,250+1000,302,1,422,short,2,1,2,250,1000,Within-Subjects
5_M,27,M,250+1000,303,1,290,long,4,1,4,750,250,Within-Subjects
5_M,27,M,250+1000,304,0,636,short,2,4,2,450,1000,Within-Subjects
5_M,27,M,250+1000,305,1,1410,short,1,6,1,650,1000,Within-Subjects
5_M,27,M,250+1000,306,0,384,short,4,2,4,350,1000,Within-Subjects
5_M,27,M,250+1000,307,1,318,short,1,5,1,350,1000,Within-Subjects
5_M,27,M,250+1000,308,1,257,long,5,2,2,750,250,Within-Subjects
5_M,27,M,250+1000,309,0,355,short,6,3,6,350,250,Within-Subjects
5_M,27,M,250+1000,310,1,358,long,4,5,5,550,250,Within-Subjects
5_M,27,M,250+1000,311,1,559,short,4,1,4,650,1000,Within-Subjects
5_M,27,M,250+1000,312,1,313,long,2,6,6,750,250,Within-Subjects
5_M,27,M,250+1000,313,0,345,short,2,3,3,350,250,Within-Subjects
5_M,27,M,250+1000,314,1,295,long,1,6,6,650,250,Within-Subjects
5_M,27,M,250+1000,315,1,448,short,1,5,1,450,1000,Within-Subjects
5_M,27,M,250+1000,316,1,567,short,4,2,2,350,1000,Within-Subjects
5_M,27,M,250+1000,317,0,308,long,2,4,4,750,1000,Within-Subjects
5_M,27,M,250+1000,318,1,211,long,4,2,2,850,1000,Within-Subjects
5_M,27,M,250+1000,319,0,341,short,4,1,4,350,1000,Within-Subjects
5_M,27,M,250+1000,320,1,247,long,6,2,2,450,250,Within-Subjects
5_M,27,M,250+1000,321,1,0.203,short,6,3,6,650,1000,Within-Subjects
5_M,27,M,250+1000,322,0,1090,short,1,6,6,450,250,Within-Subjects
5_M,27,M,250+1000,323,0,1690,short,6,3,3,650,1000,Within-Subjects
5_M,27,M,250+1000,324,0,1970,long,6,5,5,650,250,Within-Subjects
5_M,27,M,250+1000,325,0,288,long,5,6,6,850,250,Within-Subjects
5_M,27,M,250+1000,326,0,679,short,4,3,3,250,250,Within-Subjects
5_M,27,M,250+1000,327,0,444,short,1,6,6,250,250,Within-Subjects
5_M,27,M,250+1000,328,0,314,long,5,2,2,550,1000,Within-Subjects
5_M,27,M,250+1000,329,0,348,long,5,4,5,650,1000,Within-Subjects
5_M,27,M,250+1000,330,0,513,long,2,1,2,750,250,Within-Subjects
5_M,27,M,250+1000,331,1,507,short,4,5,4,350,1000,Within-Subjects
5_M,27,M,250+1000,332,0,284,long,3,5,3,850,250,Within-Subjects
5_M,27,M,250+1000,333,1,984,short,4,1,4,250,250,Within-Subjects
5_M,27,M,250+1000,334,1,274,long,2,5,5,750,250,Within-Subjects
5_M,27,M,250+1000,335,0,282,long,1,6,1,750,250,Within-Subjects
5_M,27,M,250+1000,336,0,270,long,1,3,3,850,250,Within-Subjects
5_M,27,M,250+1000,337,0,372,short,3,4,3,250,1000,Within-Subjects
5_M,27,M,250+1000,338,0,246,long,6,5,5,650,1000,Within-Subjects
5_M,27,M,250+1000,339,1,424,short,1,6,1,650,250,Within-Subjects
5_M,27,M,250+1000,340,0,318,long,5,4,4,450,250,Within-Subjects
5_M,27,M,250+1000,341,1,388,short,6,5,6,250,250,Within-Subjects
5_M,27,M,250+1000,342,0,528,long,1,2,2,850,250,Within-Subjects
5_M,27,M,250+1000,343,1,242,long,5,3,5,850,1000,Within-Subjects
5_M,27,M,250+1000,344,0,396,short,2,4,4,350,250,Within-Subjects
5_M,27,M,250+1000,345,1,1100,short,1,3,3,250,250,Within-Subjects
5_M,27,M,250+1000,346,0,1010,short,1,5,5,250,250,Within-Subjects
5_M,27,M,250+1000,347,1,365,short,1,5,5,250,250,Within-Subjects
5_M,27,M,250+1000,348,0,671,long,5,3,5,450,1000,Within-Subjects
5_M,27,M,250+1000,349,0,584,short,2,3,3,550,1000,Within-Subjects
5_M,27,M,250+1000,350,1,1010,short,3,5,5,650,250,Within-Subjects
5_M,27,M,250+1000,351,0,249,long,6,2,2,650,1000,Within-Subjects
5_M,27,M,250+1000,352,0,242,long,5,3,3,650,1000,Within-Subjects
5_M,27,M,250+1000,353,0,241,long,5,6,6,750,250,Within-Subjects
5_M,27,M,250+1000,354,0,211,long,4,6,4,750,1000,Within-Subjects
5_M,27,M,250+1000,355,1,327,long,3,5,5,650,1000,Within-Subjects
5_M,27,M,250+1000,356,0,447,long,6,4,6,650,250,Within-Subjects
5_M,27,M,250+1000,357,1,483,short,3,6,6,250,1000,Within-Subjects
5_M,27,M,250+1000,358,0,271,long,4,6,4,850,250,Within-Subjects
5_M,27,M,250+1000,359,1,377,long,3,5,5,750,250,Within-Subjects
5_M,27,M,250+1000,360,1,2730,short,2,6,2,450,250,Within-Subjects
5_M,27,M,250+1000,361,0,573,long,2,4,4,650,250,Within-Subjects
5_M,27,M,250+1000,362,1,875,long,4,3,4,750,1000,Within-Subjects
5_M,27,M,250+1000,363,0,283,long,6,1,1,650,1000,Within-Subjects
5_M,27,M,250+1000,364,1,600,long,1,4,1,650,250,Within-Subjects
5_M,27,M,250+1000,365,1,522,short,3,2,2,350,1000,Within-Subjects
5_M,27,M,250+1000,366,0,309,long,2,4,2,750,1000,Within-Subjects
5_M,27,M,250+1000,367,0,424,short,1,6,6,250,1000,Within-Subjects
5_M,27,M,250+1000,368,1,487,short,3,5,5,450,250,Within-Subjects
5_M,27,M,250+1000,369,0,1050,long,4,1,1,450,1000,Within-Subjects
5_M,27,M,250+1000,370,1,264,long,2,6,2,850,250,Within-Subjects
5_M,27,M,250+1000,371,1,1280,long,4,6,4,550,1000,Within-Subjects
5_M,27,M,250+1000,372,0,600,short,4,5,5,450,1000,Within-Subjects
5_M,27,M,250+1000,373,1,292,long,6,3,6,850,1000,Within-Subjects
5_M,27,M,250+1000,374,1,458,short,1,2,2,350,1000,Within-Subjects
5_M,27,M,250+1000,375,1,342,long,5,6,5,750,1000,Within-Subjects
5_M,27,M,250+1000,376,1,728,long,1,4,4,750,1000,Within-Subjects
5_M,27,M,250+1000,377,0,514,short,1,3,1,450,250,Within-Subjects
5_M,27,M,250+1000,378,1,488,short,2,4,4,550,250,Within-Subjects
5_M,27,M,250+1000,379,1,1510,long,1,2,1,750,250,Within-Subjects
5_M,27,M,250+1000,380,0,1650,short,1,5,1,450,1000,Within-Subjects
5_M,27,M,250+1000,381,0,825,short,3,2,2,250,1000,Within-Subjects
5_M,27,M,250+1000,382,0,672,long,1,3,1,750,1000,Within-Subjects
5_M,27,M,250+1000,383,1,456,short,4,3,3,350,250,Within-Subjects
5_M,27,M,250+1000,384,1,265,long,2,5,2,650,1000,Within-Subjects
5_M,27,M,250+1000,385,0,590,short,3,5,5,650,250,Within-Subjects
5_M,27,M,250+1000,386,0,412,short,6,2,2,350,1000,Within-Subjects
5_M,27,M,250+1000,387,1,623,short,2,6,6,250,1000,Within-Subjects
5_M,27,M,250+1000,388,1,483,short,4,1,4,250,250,Within-Subjects
5_M,27,M,250+1000,389,0,447,short,3,6,6,450,1000,Within-Subjects
5_M,27,M,250+1000,390,0,625,long,1,3,1,750,250,Within-Subjects
5_M,27,M,250+1000,391,0,211,long,3,1,3,750,1000,Within-Subjects
5_M,27,M,250+1000,392,1,367,short,6,5,5,350,250,Within-Subjects
5_M,27,M,250+1000,393,0,481,short,4,6,4,350,250,Within-Subjects
5_M,27,M,250+1000,394,0,407,long,4,6,4,450,250,Within-Subjects
5_M,27,M,250+1000,395,1,299,long,2,5,2,550,1000,Within-Subjects
5_M,27,M,250+1000,396,1,315,short,6,1,1,250,1000,Within-Subjects
5_M,27,M,250+1000,397,1,409,short,1,3,1,250,250,Within-Subjects
5_M,27,M,250+1000,398,1,427,short,5,4,5,550,250,Within-Subjects
5_M,27,M,250+1000,399,1,261,long,2,4,4,650,1000,Within-Subjects
5_M,27,M,250+1000,400,0,603,long,2,6,2,650,250,Within-Subjects
5_M,27,M,250+1000,401,1,237,long,6,2,6,750,250,Within-Subjects
5_M,27,M,250+1000,402,0,561,short,5,1,1,250,250,Within-Subjects
5_M,27,M,250+1000,403,1,218,long,4,5,4,850,250,Within-Subjects
5_M,27,M,250+1000,404,1,643,long,4,6,4,450,1000,Within-Subjects
5_M,27,M,250+1000,405,0,341,long,2,4,4,650,1000,Within-Subjects
5_M,27,M,250+1000,406,0,227,long,2,4,2,850,1000,Within-Subjects
5_M,27,M,250+1000,407,1,774,long,3,5,3,650,1000,Within-Subjects
5_M,27,M,250+1000,408,1,394,short,3,4,3,450,1000,Within-Subjects
5_M,27,M,250+1000,409,1,672,short,2,3,3,850,1000,Within-Subjects
5_M,27,M,250+1000,410,1,320,short,4,6,4,450,1000,Within-Subjects
5_M,27,M,250+1000,411,1,954,short,5,6,6,450,1000,Within-Subjects
5_M,27,M,250+1000,412,1,1700,long,1,5,1,650,250,Within-Subjects
5_M,27,M,250+1000,413,0,264,long,6,4,6,750,1000,Within-Subjects
5_M,27,M,250+1000,414,1,324,long,2,3,3,650,250,Within-Subjects
5_M,27,M,250+1000,415,1,210,long,5,4,5,850,1000,Within-Subjects
5_M,27,M,250+1000,416,0,380,short,4,1,4,250,1000,Within-Subjects
5_M,27,M,250+1000,417,0,324,short,3,2,3,450,250,Within-Subjects
5_M,27,M,250+1000,418,0,665,long,5,2,2,850,250,Within-Subjects
5_M,27,M,250+1000,419,1,1460,long,1,4,4,450,1000,Within-Subjects
5_M,27,M,250+1000,420,1,509,short,4,2,2,250,250,Within-Subjects
6_M,20,M,250+1000,2,1,1830,short,4,2,4,250,250,Within-Subjects
6_M,20,M,250+1000,3,1,2870,short,2,3,3,350,1000,Within-Subjects
6_M,20,M,250+1000,4,1,854,short,1,4,1,450,250,Within-Subjects
6_M,20,M,250+1000,5,0,732,short,4,3,4,250,1000,Within-Subjects
6_M,20,M,250+1000,6,1,2010,short,2,1,2,350,250,Within-Subjects
6_M,20,M,250+1000,7,1,714,short,6,1,1,350,250,Within-Subjects
6_M,20,M,250+1000,8,0,476,long,6,2,6,550,250,Within-Subjects
6_M,20,M,250+1000,9,0,1810,short,4,6,6,350,250,Within-Subjects
6_M,20,M,250+1000,10,0,510,long,6,5,5,850,1000,Within-Subjects
6_M,20,M,250+1000,11,1,729,short,1,4,1,350,250,Within-Subjects
6_M,20,M,250+1000,12,0,541,long,3,5,3,750,250,Within-Subjects
6_M,20,M,250+1000,13,1,469,long,2,6,2,550,1000,Within-Subjects
6_M,20,M,250+1000,14,0,855,short,3,1,3,350,250,Within-Subjects
6_M,20,M,250+1000,15,1,1800,long,5,2,5,450,1000,Within-Subjects
6_M,20,M,250+1000,16,0,563,short,3,6,3,350,1000,Within-Subjects
6_M,20,M,250+1000,17,1,313,long,1,6,6,850,1000,Within-Subjects
6_M,20,M,250+1000,18,0,531,short,1,4,4,450,250,Within-Subjects
6_M,20,M,250+1000,19,1,1010,short,1,2,2,550,250,Within-Subjects
6_M,20,M,250+1000,20,0,494,short,5,4,4,250,250,Within-Subjects
6_M,20,M,250+1000,21,1,1390,short,2,5,5,450,1000,Within-Subjects
6_M,20,M,250+1000,22,1,604,short,4,5,4,250,1000,Within-Subjects
6_M,20,M,250+1000,23,0,508,short,4,6,4,350,1000,Within-Subjects
6_M,20,M,250+1000,24,0,472,short,6,1,6,350,250,Within-Subjects
6_M,20,M,250+1000,25,0,320,long,1,6,6,750,250,Within-Subjects
6_M,20,M,250+1000,26,0,216,long,2,1,1,850,1000,Within-Subjects
6_M,20,M,250+1000,27,1,2390,long,6,3,6,550,1000,Within-Subjects
6_M,20,M,250+1000,28,1,368,long,4,5,4,550,250,Within-Subjects
6_M,20,M,250+1000,29,0,385,long,6,2,2,650,250,Within-Subjects
6_M,20,M,250+1000,30,1,479,short,2,3,3,350,250,Within-Subjects
6_M,20,M,250+1000,31,0,277,long,3,1,1,750,250,Within-Subjects
6_M,20,M,250+1000,32,0,356,long,4,5,5,850,250,Within-Subjects
6_M,20,M,250+1000,33,0,497,short,3,4,4,550,250,Within-Subjects
6_M,20,M,250+1000,34,0,859,long,5,4,4,650,250,Within-Subjects
6_M,20,M,250+1000,35,1,987,short,6,3,3,350,1000,Within-Subjects
6_M,20,M,250+1000,36,1,2730,long,6,5,5,650,250,Within-Subjects
6_M,20,M,250+1000,37,1,177,long,4,2,2,750,250,Within-Subjects
6_M,20,M,250+1000,38,1,535,short,4,2,2,350,250,Within-Subjects
6_M,20,M,250+1000,39,1,263,long,1,5,5,650,1000,Within-Subjects
6_M,20,M,250+1000,40,0,468,short,6,4,4,550,1000,Within-Subjects
6_M,20,M,250+1000,41,0,739,short,5,2,2,350,1000,Within-Subjects
6_M,20,M,250+1000,42,1,1550,short,2,4,2,450,250,Within-Subjects
6_M,20,M,250+1000,43,1,221,long,1,3,1,850,1000,Within-Subjects
6_M,20,M,250+1000,44,1,678,short,4,1,4,450,1000,Within-Subjects
6_M,20,M,250+1000,45,0,506,short,5,4,5,250,1000,Within-Subjects
6_M,20,M,250+1000,46,1,774,short,5,2,5,250,250,Within-Subjects
6_M,20,M,250+1000,47,0,440,long,1,6,6,650,250,Within-Subjects
6_M,20,M,250+1000,48,1,226,long,1,5,5,650,1000,Within-Subjects
6_M,20,M,250+1000,49,0,650,short,2,4,4,250,250,Within-Subjects
6_M,20,M,250+1000,50,1,482,short,4,2,2,250,250,Within-Subjects
6_M,20,M,250+1000,51,1,701,short,6,2,2,250,1000,Within-Subjects
6_M,20,M,250+1000,52,1,563,long,2,6,6,550,1000,Within-Subjects
6_M,20,M,250+1000,53,1,510,short,5,1,1,350,250,Within-Subjects
6_M,20,M,250+1000,54,1,349,long,1,4,4,550,250,Within-Subjects
6_M,20,M,250+1000,55,0,224,long,5,3,3,750,1000,Within-Subjects
6_M,20,M,250+1000,56,0,561,short,2,3,3,450,250,Within-Subjects
6_M,20,M,250+1000,57,1,245,long,5,6,6,750,1000,Within-Subjects
6_M,20,M,250+1000,58,0,275,long,3,5,5,750,1000,Within-Subjects
6_M,20,M,250+1000,59,0,361,long,3,1,1,750,250,Within-Subjects
6_M,20,M,250+1000,60,1,241,long,4,3,3,750,250,Within-Subjects
6_M,20,M,250+1000,61,0,1670,long,6,1,1,850,1000,Within-Subjects
6_M,20,M,250+1000,62,0,295,long,4,2,2,650,1000,Within-Subjects
6_M,20,M,250+1000,63,1,1080,short,5,2,2,350,1000,Within-Subjects
6_M,20,M,250+1000,64,1,865,short,5,1,5,350,250,Within-Subjects
6_M,20,M,250+1000,65,1,610,short,3,4,3,350,1000,Within-Subjects
6_M,20,M,250+1000,66,1,423,short,3,2,3,350,1000,Within-Subjects
6_M,20,M,250+1000,67,0,281,long,5,3,3,750,1000,Within-Subjects
6_M,20,M,250+1000,68,0,856,long,3,6,3,650,250,Within-Subjects
6_M,20,M,250+1000,69,0,508,long,2,6,2,650,1000,Within-Subjects
6_M,20,M,250+1000,70,1,368,long,4,6,4,750,1000,Within-Subjects
6_M,20,M,250+1000,71,1,2810,long,3,1,3,850,250,Within-Subjects
6_M,20,M,250+1000,72,0,1900,short,2,6,6,550,250,Within-Subjects
6_M,20,M,250+1000,73,1,380,long,5,1,1,550,1000,Within-Subjects
6_M,20,M,250+1000,74,0,2810,short,1,2,2,550,1000,Within-Subjects
6_M,20,M,250+1000,75,1,1650,long,3,6,6,650,1000,Within-Subjects
6_M,20,M,250+1000,76,1,257,long,5,3,3,850,250,Within-Subjects
6_M,20,M,250+1000,77,1,223,long,3,5,5,650,250,Within-Subjects
6_M,20,M,250+1000,78,1,503,short,5,6,6,550,250,Within-Subjects
6_M,20,M,250+1000,79,1,807,short,4,5,5,550,250,Within-Subjects
6_M,20,M,250+1000,80,0,295,long,3,4,4,750,1000,Within-Subjects
6_M,20,M,250+1000,81,0,725,short,3,1,1,650,250,Within-Subjects
6_M,20,M,250+1000,82,1,1140,short,2,1,1,450,250,Within-Subjects
6_M,20,M,250+1000,83,1,721,short,5,6,6,550,1000,Within-Subjects
6_M,20,M,250+1000,84,1,272,long,5,6,6,750,250,Within-Subjects
6_M,20,M,250+1000,85,1,366,long,2,5,2,750,250,Within-Subjects
6_M,20,M,250+1000,86,0,1570,short,3,4,3,450,1000,Within-Subjects
6_M,20,M,250+1000,87,1,328,long,1,6,1,750,250,Within-Subjects
6_M,20,M,250+1000,88,0,474,short,5,6,5,250,250,Within-Subjects
6_M,20,M,250+1000,89,1,394,short,3,6,3,350,250,Within-Subjects
6_M,20,M,250+1000,90,1,569,short,5,3,5,350,250,Within-Subjects
6_M,20,M,250+1000,91,0,688,long,3,1,3,650,1000,Within-Subjects
6_M,20,M,250+1000,92,0,375,long,1,2,1,550,1000,Within-Subjects
6_M,20,M,250+1000,93,0,1250,long,1,2,1,450,1000,Within-Subjects
6_M,20,M,250+1000,94,0,581,short,4,3,4,450,1000,Within-Subjects
6_M,20,M,250+1000,95,1,761,short,4,3,4,450,250,Within-Subjects
6_M,20,M,250+1000,96,0,475,short,1,5,1,350,250,Within-Subjects
6_M,20,M,250+1000,97,1,391,long,1,2,1,750,1000,Within-Subjects
6_M,20,M,250+1000,98,1,473,short,6,4,6,450,1000,Within-Subjects
6_M,20,M,250+1000,99,0,899,long,1,5,1,650,250,Within-Subjects
6_M,20,M,250+1000,100,1,591,short,2,3,3,350,1000,Within-Subjects
6_M,20,M,250+1000,101,1,1470,short,2,1,1,650,1000,Within-Subjects
6_M,20,M,250+1000,102,0,328,long,1,3,3,450,1000,Within-Subjects
6_M,20,M,250+1000,103,1,434,short,2,3,3,250,1000,Within-Subjects
6_M,20,M,250+1000,104,0,584,short,6,2,2,350,250,Within-Subjects
6_M,20,M,250+1000,105,1,361,long,1,5,5,850,1000,Within-Subjects
6_M,20,M,250+1000,106,0,378,short,6,3,3,350,250,Within-Subjects
6_M,20,M,250+1000,107,1,596,short,2,5,5,450,250,Within-Subjects
6_M,20,M,250+1000,108,0,732,long,2,1,1,550,1000,Within-Subjects
6_M,20,M,250+1000,109,0,656,short,2,6,6,550,250,Within-Subjects
6_M,20,M,250+1000,110,1,382,long,4,1,1,550,250,Within-Subjects
6_M,20,M,250+1000,111,0,484,short,6,3,3,350,1000,Within-Subjects
6_M,20,M,250+1000,112,0,820,short,3,2,2,450,250,Within-Subjects
6_M,20,M,250+1000,113,0,520,short,3,4,4,250,1000,Within-Subjects
6_M,20,M,250+1000,114,0,556,short,4,5,5,250,250,Within-Subjects
6_M,20,M,250+1000,115,1,610,long,5,3,3,450,1000,Within-Subjects
6_M,20,M,250+1000,116,0,324,long,5,1,1,650,1000,Within-Subjects
6_M,20,M,250+1000,117,1,752,short,5,3,3,550,250,Within-Subjects
6_M,20,M,250+1000,118,0,261,long,1,2,2,750,250,Within-Subjects
6_M,20,M,250+1000,119,0,303,long,4,6,6,650,1000,Within-Subjects
6_M,20,M,250+1000,120,1,286,long,6,1,1,550,1000,Within-Subjects
6_M,20,M,250+1000,121,1,385,long,3,6,6,650,250,Within-Subjects
6_M,20,M,250+1000,122,0,332,long,3,6,6,650,1000,Within-Subjects
6_M,20,M,250+1000,123,1,1810,long,4,5,5,450,1000,Within-Subjects
6_M,20,M,250+1000,124,0,279,long,1,5,5,650,250,Within-Subjects
6_M,20,M,250+1000,125,0,343,long,2,1,1,450,1000,Within-Subjects
6_M,20,M,250+1000,126,1,525,short,1,3,3,350,250,Within-Subjects
6_M,20,M,250+1000,127,1,573,short,5,2,2,450,250,Within-Subjects
6_M,20,M,250+1000,128,1,1740,long,4,3,3,850,1000,Within-Subjects
6_M,20,M,250+1000,129,1,625,long,5,1,1,850,250,Within-Subjects
6_M,20,M,250+1000,130,0,265,long,2,4,4,750,250,Within-Subjects
6_M,20,M,250+1000,131,0,524,short,1,5,5,550,250,Within-Subjects
6_M,20,M,250+1000,132,1,449,short,3,1,1,250,250,Within-Subjects
6_M,20,M,250+1000,133,0,217,long,2,4,4,850,1000,Within-Subjects
6_M,20,M,250+1000,134,0,474,short,6,4,4,250,250,Within-Subjects
6_M,20,M,250+1000,135,1,369,long,3,2,2,650,1000,Within-Subjects
6_M,20,M,250+1000,136,1,360,short,2,4,4,550,250,Within-Subjects
6_M,20,M,250+1000,137,0,442,short,3,6,6,350,250,Within-Subjects
6_M,20,M,250+1000,138,0,192,long,4,6,6,850,250,Within-Subjects
6_M,20,M,250+1000,139,1,246,long,5,1,1,750,250,Within-Subjects
6_M,20,M,250+1000,140,1,448,short,5,6,6,550,1000,Within-Subjects
6_M,20,M,250+1000,141,1,330,long,4,2,2,550,250,Within-Subjects
6_M,20,M,250+1000,142,0,252,long,4,6,6,850,250,Within-Subjects
6_M,20,M,250+1000,143,1,1170,long,2,6,6,650,250,Within-Subjects
6_M,20,M,250+1000,144,1,654,long,4,1,1,750,1000,Within-Subjects
6_M,20,M,250+1000,145,1,428,long,5,1,1,850,1000,Within-Subjects
6_M,20,M,250+1000,146,0,566,short,2,6,6,350,250,Within-Subjects
6_M,20,M,250+1000,147,0,310,long,2,5,5,650,1000,Within-Subjects
6_M,20,M,250+1000,148,0,235,long,5,4,4,850,250,Within-Subjects
6_M,20,M,250+1000,149,1,517,short,1,6,6,450,250,Within-Subjects
6_M,20,M,250+1000,150,1,209,long,6,2,2,550,1000,Within-Subjects
6_M,20,M,250+1000,151,1,245,long,3,4,4,750,250,Within-Subjects
6_M,20,M,250+1000,152,0,1490,long,2,1,1,550,250,Within-Subjects
6_M,20,M,250+1000,153,1,851,short,2,4,4,350,1000,Within-Subjects
6_M,20,M,250+1000,154,0,2310,short,5,6,5,350,1000,Within-Subjects
6_M,20,M,250+1000,155,0,539,short,1,2,1,250,1000,Within-Subjects
6_M,20,M,250+1000,156,0,806,short,3,5,3,250,250,Within-Subjects
6_M,20,M,250+1000,157,0,1430,long,1,3,1,650,250,Within-Subjects
6_M,20,M,250+1000,158,0,371,long,4,2,4,550,1000,Within-Subjects
6_M,20,M,250+1000,159,0,953,short,3,2,3,350,250,Within-Subjects
6_M,20,M,250+1000,160,1,364,long,6,5,5,650,250,Within-Subjects
6_M,20,M,250+1000,161,1,1390,short,3,2,3,250,1000,Within-Subjects
6_M,20,M,250+1000,162,0,300,long,4,2,4,850,250,Within-Subjects
6_M,20,M,250+1000,163,0,3920,short,1,4,1,450,1000,Within-Subjects
6_M,20,M,250+1000,164,1,600,short,6,1,6,350,250,Within-Subjects
6_M,20,M,250+1000,165,0,684,short,4,5,4,350,1000,Within-Subjects
6_M,20,M,250+1000,166,1,310,long,2,1,2,750,250,Within-Subjects
6_M,20,M,250+1000,167,1,1260,short,1,3,1,450,1000,Within-Subjects
6_M,20,M,250+1000,168,1,225,long,6,5,6,850,250,Within-Subjects
6_M,20,M,250+1000,169,0,1880,short,2,5,2,450,250,Within-Subjects
6_M,20,M,250+1000,170,1,287,long,6,3,6,750,1000,Within-Subjects
6_M,20,M,250+1000,171,1,299,long,3,4,3,650,250,Within-Subjects
6_M,20,M,250+1000,172,1,421,short,6,3,6,350,1000,Within-Subjects
6_M,20,M,250+1000,173,1,491,short,5,4,5,250,1000,Within-Subjects
6_M,20,M,250+1000,174,0,281,long,5,3,5,850,250,Within-Subjects
6_M,20,M,250+1000,175,0,327,long,4,6,4,650,1000,Within-Subjects
6_M,20,M,250+1000,176,1,368,long,2,3,2,650,250,Within-Subjects
6_M,20,M,250+1000,177,0,957,long,1,3,1,450,250,Within-Subjects
6_M,20,M,250+1000,178,0,495,long,2,4,2,850,1000,Within-Subjects
6_M,20,M,250+1000,179,0,486,short,2,5,2,250,1000,Within-Subjects
6_M,20,M,250+1000,180,1,253,long,1,5,1,850,1000,Within-Subjects
6_M,20,M,250+1000,181,1,304,long,4,3,4,750,1000,Within-Subjects
6_M,20,M,250+1000,182,0,1720,long,3,5,3,850,1000,Within-Subjects
6_M,20,M,250+1000,183,0,1020,short,6,2,6,350,1000,Within-Subjects
6_M,20,M,250+1000,184,1,288,long,4,1,4,650,250,Within-Subjects
6_M,20,M,250+1000,185,1,266,long,4,3,4,650,1000,Within-Subjects
6_M,20,M,250+1000,186,1,494,long,6,1,6,650,1000,Within-Subjects
6_M,20,M,250+1000,187,0,604,short,6,2,6,250,250,Within-Subjects
6_M,20,M,250+1000,188,1,270,long,5,6,5,850,250,Within-Subjects
6_M,20,M,250+1000,189,0,640,short,6,4,6,350,1000,Within-Subjects
6_M,20,M,250+1000,190,1,704,short,6,2,2,450,250,Within-Subjects
6_M,20,M,250+1000,191,1,370,long,4,6,6,750,1000,Within-Subjects
6_M,20,M,250+1000,192,0,374,long,1,2,2,850,1000,Within-Subjects
6_M,20,M,250+1000,193,0,425,long,1,6,6,750,250,Within-Subjects
6_M,20,M,250+1000,194,0,267,long,6,4,4,850,250,Within-Subjects
6_M,20,M,250+1000,195,0,247,long,6,2,2,850,250,Within-Subjects
6_M,20,M,250+1000,196,1,575,short,5,3,3,250,250,Within-Subjects
6_M,20,M,250+1000,197,1,885,long,4,2,2,450,250,Within-Subjects
6_M,20,M,250+1000,198,1,1150,long,5,3,3,450,1000,Within-Subjects
6_M,20,M,250+1000,199,0,389,short,3,4,4,250,250,Within-Subjects
6_M,20,M,250+1000,200,0,237,long,4,1,1,850,250,Within-Subjects
6_M,20,M,250+1000,201,1,471,short,3,2,2,250,1000,Within-Subjects
6_M,20,M,250+1000,202,0,1370,long,6,5,5,550,1000,Within-Subjects
6_M,20,M,250+1000,203,1,271,long,5,1,1,750,1000,Within-Subjects
6_M,20,M,250+1000,204,0,267,long,5,6,6,750,250,Within-Subjects
6_M,20,M,250+1000,205,0,465,long,5,4,4,750,250,Within-Subjects
6_M,20,M,250+1000,206,0,2020,short,5,3,3,550,250,Within-Subjects
6_M,20,M,250+1000,207,1,339,long,1,6,6,550,1000,Within-Subjects
6_M,20,M,250+1000,208,0,375,long,6,5,5,650,1000,Within-Subjects
6_M,20,M,250+1000,209,0,578,short,5,4,5,350,250,Within-Subjects
6_M,20,M,250+1000,210,1,335,long,1,6,1,650,1000,Within-Subjects
6_M,20,M,250+1000,211,1,492,short,5,4,5,250,250,Within-Subjects
6_M,20,M,250+1000,212,1,504,short,6,4,6,250,250,Within-Subjects
6_M,20,M,250+1000,213,1,264,long,5,2,5,850,1000,Within-Subjects
6_M,20,M,250+1000,214,1,1610,long,5,3,5,450,250,Within-Subjects
6_M,20,M,250+1000,215,0,3400,long,3,2,3,750,1000,Within-Subjects
6_M,20,M,250+1000,216,1,1090,long,5,1,5,450,250,Within-Subjects
6_M,20,M,250+1000,217,1,370,long,5,2,5,750,250,Within-Subjects
6_M,20,M,250+1000,218,0,564,short,6,4,6,350,1000,Within-Subjects
6_M,20,M,250+1000,219,0,1060,short,3,1,3,250,1000,Within-Subjects
6_M,20,M,250+1000,220,1,230,long,3,2,3,850,250,Within-Subjects
6_M,20,M,250+1000,221,0,889,short,1,4,1,550,1000,Within-Subjects
6_M,20,M,250+1000,222,0,749,short,6,3,6,650,250,Within-Subjects
6_M,20,M,250+1000,223,0,413,long,6,1,6,850,1000,Within-Subjects
6_M,20,M,250+1000,224,1,340,long,4,2,4,750,1000,Within-Subjects
6_M,20,M,250+1000,225,1,1050,long,5,6,5,650,1000,Within-Subjects
6_M,20,M,250+1000,226,0,269,long,1,6,1,850,250,Within-Subjects
6_M,20,M,250+1000,227,0,287,long,2,4,4,850,1000,Within-Subjects
6_M,20,M,250+1000,228,1,503,short,2,6,6,250,250,Within-Subjects
6_M,20,M,250+1000,229,0,779,short,4,6,6,250,250,Within-Subjects
6_M,20,M,250+1000,230,1,319,long,3,4,4,550,250,Within-Subjects
6_M,20,M,250+1000,231,1,611,short,2,4,4,750,1000,Within-Subjects
6_M,20,M,250+1000,232,0,1150,long,1,5,1,350,1000,Within-Subjects
6_M,20,M,250+1000,233,0,388,long,4,6,4,450,250,Within-Subjects
6_M,20,M,250+1000,234,1,240,long,3,6,3,850,1000,Within-Subjects
6_M,20,M,250+1000,235,0,983,long,5,2,5,650,1000,Within-Subjects
6_M,20,M,250+1000,236,1,524,short,6,1,6,250,250,Within-Subjects
6_M,20,M,250+1000,237,0,558,short,4,1,4,450,1000,Within-Subjects
6_M,20,M,250+1000,238,0,308,long,2,3,2,850,250,Within-Subjects
6_M,20,M,250+1000,239,0,438,short,2,6,2,350,250,Within-Subjects
6_M,20,M,250+1000,240,0,252,long,6,1,6,850,1000,Within-Subjects
6_M,20,M,250+1000,241,0,472,short,4,5,4,250,1000,Within-Subjects
6_M,20,M,250+1000,242,0,646,short,2,4,2,550,250,Within-Subjects
6_M,20,M,250+1000,243,1,260,long,5,6,5,850,1000,Within-Subjects
6_M,20,M,250+1000,244,1,479,short,3,5,3,550,250,Within-Subjects
6_M,20,M,250+1000,245,0,245,long,6,5,6,850,250,Within-Subjects
6_M,20,M,250+1000,246,1,599,short,3,6,3,450,1000,Within-Subjects
6_M,20,M,250+1000,247,1,889,long,4,3,4,650,1000,Within-Subjects
6_M,20,M,250+1000,248,1,533,short,1,5,1,250,250,Within-Subjects
6_M,20,M,250+1000,249,1,403,long,4,5,4,450,250,Within-Subjects
6_M,20,M,250+1000,250,1,289,long,4,1,4,750,250,Within-Subjects
6_M,20,M,250+1000,251,1,325,long,6,4,6,750,1000,Within-Subjects
6_M,20,M,250+1000,252,0,365,long,5,3,5,550,250,Within-Subjects
6_M,20,M,250+1000,253,0,2090,long,5,1,5,650,1000,Within-Subjects
6_M,20,M,250+1000,254,1,1630,short,3,2,3,450,1000,Within-Subjects
6_M,20,M,250+1000,255,0,1570,long,6,5,6,450,1000,Within-Subjects
6_M,20,M,250+1000,256,0,370,long,6,1,6,550,1000,Within-Subjects
6_M,20,M,250+1000,257,0,304,long,2,5,2,750,250,Within-Subjects
6_M,20,M,250+1000,258,1,1490,long,1,2,1,550,250,Within-Subjects
6_M,20,M,250+1000,259,1,300,long,2,3,2,850,250,Within-Subjects
6_M,20,M,250+1000,260,0,364,long,6,2,6,550,250,Within-Subjects
6_M,20,M,250+1000,261,0,450,short,2,5,2,350,1000,Within-Subjects
6_M,20,M,250+1000,262,0,514,short,1,5,1,250,1000,Within-Subjects
6_M,20,M,250+1000,263,1,310,long,1,4,1,850,250,Within-Subjects
6_M,20,M,250+1000,264,0,510,short,6,4,6,450,1000,Within-Subjects
6_M,20,M,250+1000,265,1,336,long,3,5,3,750,1000,Within-Subjects
6_M,20,M,250+1000,266,0,3410,short,5,4,5,750,250,Within-Subjects
6_M,20,M,250+1000,267,1,1300,long,5,4,4,450,250,Within-Subjects
6_M,20,M,250+1000,268,0,551,short,3,2,2,250,1000,Within-Subjects
6_M,20,M,250+1000,269,1,671,short,1,6,6,350,1000,Within-Subjects
6_M,20,M,250+1000,270,0,565,short,1,2,2,250,1000,Within-Subjects
6_M,20,M,250+1000,271,0,335,long,4,6,6,850,250,Within-Subjects
6_M,20,M,250+1000,272,0,477,short,3,4,4,450,250,Within-Subjects
6_M,20,M,250+1000,273,0,3320,short,3,4,4,550,250,Within-Subjects
6_M,20,M,250+1000,274,0,4210,long,4,6,6,650,1000,Within-Subjects
6_M,20,M,250+1000,275,0,524,short,2,5,5,350,250,Within-Subjects
6_M,20,M,250+1000,276,0,642,short,6,1,1,350,250,Within-Subjects
6_M,20,M,250+1000,278,1,4110,short,5,6,6,550,1000,Within-Subjects
6_M,20,M,250+1000,279,0,718,short,3,6,6,750,250,Within-Subjects
6_M,20,M,250+1000,280,0,454,short,2,4,4,250,250,Within-Subjects
6_M,20,M,250+1000,281,0,286,long,4,5,5,750,1000,Within-Subjects
6_M,20,M,250+1000,282,1,404,short,1,3,3,250,250,Within-Subjects
6_M,20,M,250+1000,283,1,584,long,1,3,3,550,250,Within-Subjects
6_M,20,M,250+1000,284,1,854,short,6,5,5,350,1000,Within-Subjects
6_M,20,M,250+1000,285,0,258,long,4,2,2,750,1000,Within-Subjects
6_M,20,M,250+1000,286,0,326,long,4,1,1,850,250,Within-Subjects
6_M,20,M,250+1000,287,1,310,long,4,3,3,850,250,Within-Subjects
6_M,20,M,250+1000,288,1,541,short,4,3,3,250,250,Within-Subjects
6_M,20,M,250+1000,289,1,308,long,3,5,5,850,1000,Within-Subjects
6_M,20,M,250+1000,290,1,485,short,1,6,6,350,250,Within-Subjects
6_M,20,M,250+1000,291,1,983,long,3,5,5,750,250,Within-Subjects
6_M,20,M,250+1000,292,1,2280,long,2,3,3,850,250,Within-Subjects
6_M,20,M,250+1000,293,0,275,long,3,6,3,750,1000,Within-Subjects
6_M,20,M,250+1000,294,0,981,long,4,1,4,550,1000,Within-Subjects
6_M,20,M,250+1000,295,1,587,short,5,1,5,350,1000,Within-Subjects
6_M,20,M,250+1000,296,1,679,short,6,1,6,450,1000,Within-Subjects
6_M,20,M,250+1000,297,1,297,long,5,2,5,850,250,Within-Subjects
6_M,20,M,250+1000,298,0,437,long,5,2,5,650,1000,Within-Subjects
6_M,20,M,250+1000,299,0,541,short,4,1,1,450,250,Within-Subjects
6_M,20,M,250+1000,300,1,709,long,2,1,1,650,1000,Within-Subjects
6_M,20,M,250+1000,301,0,544,short,1,5,5,350,250,Within-Subjects
6_M,20,M,250+1000,302,1,2080,short,3,4,4,350,1000,Within-Subjects
6_M,20,M,250+1000,303,1,1850,long,3,5,5,650,250,Within-Subjects
6_M,20,M,250+1000,304,1,618,short,6,3,3,250,1000,Within-Subjects
6_M,20,M,250+1000,305,1,1200,long,6,5,5,750,1000,Within-Subjects
6_M,20,M,250+1000,306,0,1750,long,4,2,2,650,250,Within-Subjects
6_M,20,M,250+1000,307,1,500,long,5,4,4,550,1000,Within-Subjects
6_M,20,M,250+1000,308,0,626,short,1,2,2,550,250,Within-Subjects
6_M,20,M,250+1000,309,0,662,short,5,2,2,350,1000,Within-Subjects
6_M,20,M,250+1000,310,1,390,short,2,3,3,450,250,Within-Subjects
6_M,20,M,250+1000,311,0,333,long,5,2,2,750,1000,Within-Subjects
6_M,20,M,250+1000,312,1,2340,short,1,4,4,650,1000,Within-Subjects
6_M,20,M,250+1000,313,1,696,short,1,6,1,250,1000,Within-Subjects
6_M,20,M,250+1000,314,0,4020,short,3,1,3,250,1000,Within-Subjects
6_M,20,M,250+1000,315,1,413,short,1,6,1,250,1000,Within-Subjects
6_M,20,M,250+1000,316,0,467,short,6,4,4,250,250,Within-Subjects
6_M,20,M,250+1000,317,1,573,short,6,2,2,250,1000,Within-Subjects
6_M,20,M,250+1000,318,1,403,long,3,6,6,750,1000,Within-Subjects
6_M,20,M,250+1000,319,1,461,short,4,3,3,350,250,Within-Subjects
6_M,20,M,250+1000,320,1,393,short,6,4,4,250,1000,Within-Subjects
6_M,20,M,250+1000,321,0,339,long,6,1,1,650,1000,Within-Subjects
6_M,20,M,250+1000,322,0,290,long,1,5,5,750,1000,Within-Subjects
6_M,20,M,250+1000,323,0,2100,long,2,1,1,650,250,Within-Subjects
6_M,20,M,250+1000,324,1,1340,long,4,2,2,450,1000,Within-Subjects
6_M,20,M,250+1000,325,0,1690,long,2,5,2,750,1000,Within-Subjects
6_M,20,M,250+1000,326,0,504,long,2,6,2,750,250,Within-Subjects
6_M,20,M,250+1000,327,1,362,long,4,1,4,850,1000,Within-Subjects
6_M,20,M,250+1000,328,0,468,long,5,6,5,650,250,Within-Subjects
6_M,20,M,250+1000,329,0,478,long,4,1,4,850,1000,Within-Subjects
6_M,20,M,250+1000,330,1,1960,long,2,6,2,750,250,Within-Subjects
6_M,20,M,250+1000,331,0,3650,long,2,1,2,650,250,Within-Subjects
6_M,20,M,250+1000,332,0,2490,short,3,1,1,850,250,Within-Subjects
6_M,20,M,250+1000,333,1,484,long,4,3,3,450,1000,Within-Subjects
6_M,20,M,250+1000,334,1,812,short,4,3,3,350,1000,Within-Subjects
6_M,20,M,250+1000,335,0,815,short,6,1,1,450,250,Within-Subjects
6_M,20,M,250+1000,336,0,630,short,1,3,3,550,1000,Within-Subjects
6_M,20,M,250+1000,337,0,581,short,1,2,2,250,250,Within-Subjects
6_M,20,M,250+1000,338,0,849,long,4,1,1,550,250,Within-Subjects
6_M,20,M,250+1000,339,0,409,long,6,2,2,850,1000,Within-Subjects
6_M,20,M,250+1000,340,0,222,long,6,4,4,750,250,Within-Subjects
6_M,20,M,250+1000,341,1,1970,short,5,4,4,450,1000,Within-Subjects
6_M,20,M,250+1000,342,0,307,long,3,5,3,550,1000,Within-Subjects
